Time(s),smooth_qw,smooth_qx,smooth_qy,smooth_qz,ax,ay,az,gx,gy,gz,mx,my,mz,lx,ly,lz
0.000647,0.922955846698146,0.2612080984402379,0.1020693588088736,-0.26363740316443857,-9.3438,-2.8828,-0.6641,-0.0312,0.0293,-0.0195,25.0625,-20.875,-12.0625,-0.0117,-0.1914,-0.0742
0.000870,0.759461411446107,0.44148341195664864,0.17251352102882325,-0.44558932499964676,-9.4062,-2.7852,-0.6641,-0.0312,0.0293,-0.0195,25.0625,-20.875,-12.0625,-0.0117,-0.1914,-0.0742
0.001003,0.5886660068733324,0.5485872885740445,0.21436530157299907,-0.5536892961294276,-9.3828,-2.6914,-0.6328,-0.0312,0.0293,-0.0195,25.0625,-20.875,-12.0625,-0.1172,0.0312,-0.0469
0.001133,0.4451145543239802,0.6076939915050673,0.23746176491200366,-0.613345707103653,-9.3203,-2.6914,-0.6133,-0.0312,0.0293,-0.0195,25.0,-22.9375,-12.0625,-0.1172,0.0312,-0.0469
0.001236,0.3352445620637264,0.63947326612526,0.2497100517072216,-0.6452363253833198,-9.3398,-2.6914,-0.5664,-0.0312,0.0293,-0.0195,25.0,-22.9375,-12.0625,-0.1172,0.0312,-0.0469
0.001343,0.2548177230534407,0.6564235755434092,0.2562151730985523,-0.6622158277802979,-9.3516,-2.7305,-0.5078,-0.0312,0.0293,-0.0195,25.0,-22.9375,-12.0625,-0.0312,0.0586,0.0195
0.001449,0.19720781970582074,0.6655546850226424,0.2597012632951647,-0.671342901157213,-9.3867,-2.7578,-0.5273,-0.0312,0.0293,-0.0195,24.3125,-21.9375,-14.25,-0.0312,0.0586,0.0195
0.001553,0.15644720332287912,0.6706245352362062,0.26160214074544436,-0.6762775504695339,-9.3672,-2.8242,-0.5586,-0.0312,0.0293,-0.0195,24.3125,-21.9375,-14.25,-0.0312,0.0586,0.0195
0.001663,0.12775829832066327,0.6734974808682908,0.26269905228951224,-0.6790200058911866,-9.2773,-2.9492,-0.5781,-0.0312,0.0293,-0.0195,24.3125,-21.9375,-14.25,-0.0312,0.0586,0.0195
0.001776,0.107752691373789,0.6751733302380618,0.2634261753977201,-0.6805416825972378,-9.2266,-3.0156,-0.6133,-0.0312,0.0293,-0.0195,24.3125,-21.9375,-14.25,-0.0312,0.0586,0.0195
0.001903,0.107752691373789,0.6751733302380618,0.2634261753977201,-0.6805416825972378,-9.1797,-3.0664,-0.625,-0.0234,-0.0078,0.0156,24.3125,-21.9375,-14.25,-0.0312,0.0586,0.0195
0.001989,0.107752691373789,0.6751733302380618,0.2634261753977201,-0.6805416825972378,-9.2227,-3.0547,-0.5586,-0.0234,-0.0078,0.0156,24.3125,-21.875,-12.5,-0.0312,0.0586,0.0195
0.002073,0.107752691373789,0.6751733302380618,0.2634261753977201,-0.6805416825972378,-9.2852,-3.0078,-0.6133,-0.0234,-0.0078,0.0156,25.0,-23.0,-13.375,-0.0312,0.0586,0.0195
0.002158,0.107752691373789,0.6751733302380618,0.2634261753977201,-0.6805416825972378,-9.3477,-2.9766,-0.6055,-0.0234,-0.0078,0.0156,25.0,-21.875,-12.0625,-0.0312,0.0586,0.0195
0.002236,0.107752691373789,0.6751733302380618,0.2634261753977201,-0.6805416825972378,-9.3516,-2.7969,-0.5586,-0.0234,-0.0078,0.0156,25.0,-21.875,-12.0625,-0.0312,0.0586,0.0195
0.002301,0.107752691373789,0.6751733302380618,0.2634261753977201,-0.6805416825972378,-9.2812,-2.7383,-0.5859,-0.0234,-0.0078,0.0156,25.6875,-24.0,-13.8125,-0.0312,0.0586,0.0195
0.002363,0.107752691373789,0.6751733302380618,0.2634261753977201,-0.6805416825972378,-9.2148,-2.6523,-0.5586,-0.0234,-0.0078,0.0156,25.6875,-24.0,-13.8125,0.0352,0.043,0.0078
0.002424,0.107752691373789,0.6751733302380618,0.2634261753977201,-0.6805416825972378,-9.2148,-2.5859,-0.5078,-0.0234,-0.0078,0.0156,25.6875,-24.0,-13.8125,0.0352,0.043,0.0078
0.002487,0.107752691373789,0.6751733302380618,0.2634261753977201,-0.6805416825972378,-9.2539,-2.4336,-0.4922,-0.0234,-0.0078,0.0156,25.6875,-24.0,-13.8125,0.0352,0.043,0.0078
0.002562,0.107752691373789,0.6751733302380618,0.2634261753977201,-0.6805416825972378,-9.2773,-2.375,-0.5078,-0.0234,-0.0078,0.0156,25.6875,-24.0,-13.8125,0.0352,0.043,0.0078
0.002630,0.107752691373789,0.6751733302380618,0.2634261753977201,-0.6805416825972378,-9.2773,-2.375,-0.5078,-0.0234,-0.0078,0.0156,25.6875,-24.0,-13.8125,0.0352,0.043,0.0078
0.002693,0.107752691373789,0.6751733302380618,0.2634261753977201,-0.6805416825972378,-9.3477,-2.4219,-0.5859,-0.0234,-0.0078,0.0156,25.6875,-24.0,-13.8125,0.0352,0.043,0.0078
0.002764,0.107752691373789,0.6751733302380618,0.2634261753977201,-0.6805416825972378,-9.3125,-2.4727,-0.5586,-0.0234,-0.0078,0.0156,25.6875,-24.0,-13.8125,0.0352,0.043,0.0078
0.002826,0.107752691373789,0.6751733302380618,0.2634261753977201,-0.6805416825972378,-9.2734,-2.5391,-0.5977,-0.0234,-0.0078,0.0156,25.6875,-24.0,-13.8125,0.0117,0.25,-0.0195
0.002909,0.107752691373789,0.6751733302380618,0.2634261753977201,-0.6805416825972378,-9.2578,-2.6133,-0.6328,-0.0234,-0.0078,0.0156,25.6875,-24.0,-13.8125,0.0117,0.25,-0.0195
0.002975,0.107752691373789,0.6751733302380618,0.2634261753977201,-0.6805416825972378,-9.2695,-2.6797,-0.6914,-0.0234,-0.0078,0.0156,25.6875,-24.0,-13.8125,0.0117,0.25,-0.0195
0.003041,0.107752691373789,0.6751733302380618,0.2634261753977201,-0.6805416825972378,-9.2695,-2.6797,-0.6914,-0.0234,-0.0078,0.0156,25.6875,-24.0,-13.8125,0.0117,0.25,-0.0195
0.003104,0.107752691373789,0.6751733302380618,0.2634261753977201,-0.6805416825972378,-9.2695,-2.6797,-0.6914,-0.0234,-0.0078,0.0156,25.6875,-24.0,-13.8125,0.0234,-0.0312,-0.0742
0.003170,0.107752691373789,0.6751733302380618,0.2634261753977201,-0.6805416825972378,-9.2695,-2.6797,-0.6914,-0.0234,-0.0078,0.0156,25.6875,-24.0,-13.8125,0.0234,-0.0312,-0.0742
0.003250,0.107752691373789,0.6751733302380618,0.2634261753977201,-0.6805416825972378,-9.1562,-2.8555,-0.6914,-0.0234,-0.0078,0.0156,25.6875,-24.0,-13.8125,0.0234,-0.0312,-0.0742
0.003315,0.107752691373789,0.6751733302380618,0.2634261753977201,-0.6805416825972378,-9.2852,-2.7969,-0.5859,-0.0234,-0.0078,0.0156,25.6875,-24.0,-13.8125,0.0234,-0.0312,-0.0742
0.003377,0.107752691373789,0.6751733302380618,0.2634261753977201,-0.6805416825972378,-9.3203,-2.9102,-0.5586,-0.0234,-0.0078,0.0156,25.375,-22.25,-12.5,0.0234,-0.0312,-0.0742
0.003443,0.107752691373789,0.6751733302380618,0.2634261753977201,-0.6805416825972378,-9.3164,-2.9766,-0.5977,-0.0234,-0.0078,0.0156,25.375,-22.25,-12.5,0.0234,-0.0312,-0.0742
0.003509,0.107752691373789,0.6751733302380618,0.2634261753977201,-0.6805416825972378,-9.3594,-3.0469,-0.6133,-0.0234,-0.0078,0.0156,25.375,-22.25,-12.5,-0.0352,-0.2188,0.0195
0.003572,0.107752691373789,0.6751733302380618,0.2634261753977201,-0.6805416825972378,-9.3984,-3.1016,-0.625,-0.0234,-0.0078,0.0156,25.0,-23.0,-14.25,-0.0352,-0.2188,0.0195
0.003636,0.107752691373789,0.6751733302380618,0.2634261753977201,-0.6805416825972378,-9.3672,-3.1797,-0.6641,-0.0234,-0.0078,0.0156,25.0,-23.0,-14.25,-0.0352,-0.2188,0.0195
0.003701,0.107752691373789,0.6751733302380618,0.2634261753977201,-0.6805416825972378,-9.2969,-3.207,-0.6719,-0.0234,-0.0078,0.0156,25.0,-23.0,-14.25,-0.0352,-0.2188,0.0195
0.003768,0.107752691373789,0.6751733302380618,0.2634261753977201,-0.6805416825972378,-9.2969,-3.207,-0.6719,-0.0234,-0.0078,0.0156,25.0,-23.0,-14.25,-0.0156,-0.4258,-0.0391
0.003848,0.107752691373789,0.6751733302380618,0.2634261753977201,-0.6805416825972378,-9.2305,-3.2266,-0.75,-0.0234,-0.0078,0.0156,25.0,-23.0,-14.25,-0.0156,-0.4258,-0.0391
0.003920,0.107752691373789,0.6751733302380618,0.2634261753977201,-0.6805416825972378,-9.2266,-3.1797,-0.6836,-0.0234,-0.0078,0.0156,25.0,-23.0,-14.25,-0.0156,-0.4258,-0.0391
0.003987,0.107752691373789,0.6751733302380618,0.2634261753977201,-0.6805416825972378,-9.2539,-3.0273,-0.5977,-0.0234,-0.0078,0.0156,25.0,-23.0,-14.25,0.0391,-0.2539,0.0352
0.004057,0.107752691373789,0.6751733302380618,0.2634261753977201,-0.6805416825972378,-9.2695,-2.8555,-0.5977,-0.0234,-0.0078,0.0156,25.0,-23.0,-14.25,0.0391,-0.2539,0.0352
0.004122,0.107752691373789,0.6751733302380618,0.2634261753977201,-0.6805416825972378,-9.3516,-2.6992,-0.5195,-0.0234,-0.0078,0.0156,25.0,-23.0,-14.25,0.0391,-0.2539,0.0352
0.004185,0.107752691373789,0.6751733302380618,0.2634261753977201,-0.6805416825972378,-9.3477,-2.6641,-0.4336,-0.0234,-0.0078,0.0156,24.6875,-21.875,-12.0625,0.0391,-0.2539,0.0352
0.004252,0.107752691373789,0.6751733302380618,0.2634261753977201,-0.6805416825972378,-9.3711,-2.6328,-0.4609,-0.0234,-0.0078,0.0156,24.6875,-21.875,-12.0625,0.0391,-0.2539,0.0352
0.004317,0.107752691373789,0.6751733302380618,0.2634261753977201,-0.6805416825972378,-9.3711,-2.6797,-0.5,-0.0234,-0.0078,0.0156,24.6875,-21.875,-12.0625,-0.0391,-0.0312,0.0781
0.004556,0.107752691373789,0.6751733302380618,0.2634261753977201,-0.6805416825972378,-9.2773,-2.8164,-0.5781,-0.0234,-0.0078,0.0156,24.6875,-23.0,-12.5625,-0.0391,-0.0312,0.0781
0.004630,0.107752691373789,0.6751733302380618,0.2634261753977201,-0.6805416825972378,-9.2734,-2.7578,-0.6523,-0.0234,-0.0078,0.0156,24.6875,-23.0,-12.5625,-0.0391,-0.0312,0.0781
0.004697,0.09341920680795304,0.6767530436740995,0.2630611821682221,-0.6812319605783869,-9.3008,-2.7109,-0.6992,-0.0312,-0.0156,0.0742,24.6875,-23.0,-12.5625,-0.0391,-0.0312,0.0781
0.004766,0.0833730209382861,0.6777749793794824,0.262773009460261,-0.6816306640740013,-9.3008,-2.6914,-0.6836,-0.0312,-0.0156,0.0742,24.3125,-21.9375,-13.75,0.0156,0.0117,-0.0664
0.004853,0.07633523997179667,0.6784491503675738,0.2625552956559626,-0.6818683144324683,-9.3047,-2.6641,-0.6836,-0.0312,-0.0156,0.0742,24.3125,-21.9375,-13.75,0.0156,0.0117,-0.0664
0.004924,0.07140639880395779,0.6789008611733012,0.2623950671679038,-0.6820143514867935,-9.3047,-2.6641,-0.6836,-0.0312,-0.0156,0.0742,24.3125,-21.9375,-13.75,0.0156,0.0312,-0.0664
0.004993,0.06795513391243865,0.6792071470016918,0.26227907408394907,-0.6821066181576243,-9.1562,-2.5664,-0.5273,-0.0312,-0.0156,0.0742,24.3125,-21.9375,-13.75,0.0156,0.0312,-0.0664
0.005060,0.06553875620641673,0.6794166871454311,0.26219600183118325,-0.6821663237708128,-9.1914,-2.4219,-0.4922,-0.0312,-0.0156,0.0742,24.3125,-21.9375,-13.75,0.0156,0.0312,-0.0664
0.005128,0.06384706373988845,0.679560982734316,0.26213693192896514,-0.6822057256545375,-9.2812,-2.3281,-0.5781,-0.0312,-0.0156,0.0742,24.3125,-21.9375,-13.75,0.0898,0.3242,0.043
0.005199,0.06371392642559728,0.6794931586483793,0.2620098898242673,-0.6823345224768839,-9.3164,-2.3281,-0.6445,-0.0312,-0.0156,0.0742,25.0,-23.3125,-13.375,0.0898,0.3242,0.043
0.005271,0.06362072678537758,0.6794456587994508,0.2619209504006276,-0.6824246592870985,-9.2344,-2.4023,-0.6641,-0.0312,-0.0156,0.0742,25.0,-23.3125,-13.375,0.0898,0.3242,0.043
0.005350,0.06355548501384381,0.679412397488104,0.2618586876434281,-0.682487745069304,-9.1836,-2.4883,-0.7383,-0.0312,-0.0156,0.0742,24.4375,-19.0625,-13.375,0.0898,0.3242,0.043
0.005419,0.06350981457269751,0.6793891088686832,0.261815100984551,-0.6825319004266448,-9.2305,-2.5664,-0.75,-0.0312,-0.0156,0.0742,24.4375,-19.0625,-13.375,0.0898,0.3242,0.043
0.005486,0.06347784452840298,0.6793728039663074,0.2617845888459101,-0.682562807020543,-9.2773,-2.5859,-0.6719,-0.1582,-0.0488,0.0,24.4375,-19.0625,-13.375,0.0898,0.3242,0.043
0.005556,0.06345546503404813,0.6793613890763763,0.26176322952664227,-0.6825844406791818,-9.2812,-2.6055,-0.6992,-0.1465,-0.0391,0.002,24.4375,-19.0625,-13.375,0.0898,0.3242,0.043
0.005624,0.06343979908886054,0.6793533979020712,0.26174827753144714,-0.6825995838409188,-9.3516,-2.5586,-0.6992,-0.1465,-0.0391,0.002,25.0,-21.25,-14.25,0.0898,0.3242,0.043
0.005690,0.06342883273017225,0.6793478036861319,0.2617378108554913,-0.6826101839072516,-9.3594,-2.5195,-0.7891,-0.1465,-0.0391,0.002,25.0,-21.25,-14.25,0.0898,0.3242,0.043
0.005756,0.06342115614719376,0.6793438875239168,0.2617304840117251,-0.6826176039158626,-9.3984,-2.5586,-0.7891,-0.1055,-0.041,0.0156,25.0,-21.25,-14.25,0.0898,0.3242,0.043
0.005823,0.06341578244974089,0.6793411460943246,0.2617253551138838,-0.6826227979272652,-9.4258,-2.5586,-0.8047,-0.1055,-0.041,0.0156,24.3125,-23.375,-13.375,0.0898,0.3242,0.043
0.005908,0.06341202080041602,0.6793392270279135,0.2617217648163352,-0.6826264337546177,-9.3984,-2.5664,-0.8164,-0.1055,-0.041,0.0156,24.9375,-23.6875,-13.8125,0.0898,0.3242,0.043
0.005975,0.06340938760382316,0.6793378836430489,0.2617192515626413,-0.6826289788549723,-9.4453,-2.5938,-0.8438,-0.1055,-0.041,0.0156,24.9375,-23.6875,-13.8125,0.0898,0.3242,0.043
0.006038,0.06340754433711007,0.6793369432505095,0.2617174922547052,-0.682630760443814,-9.4883,-2.6055,-0.7695,-0.0684,-0.0566,0.0547,24.9375,-23.6875,-13.8125,0.0898,0.3242,0.043
0.006107,0.06340625403021256,0.6793362849613653,0.26171626071860843,-0.6826320075708552,-9.5117,-2.625,-0.8633,-0.0684,-0.0566,0.0547,25.0,-22.625,-14.25,0.0898,0.3242,0.043
0.006173,0.06340535080132885,0.6793358241498032,0.2617153986293065,-0.6826328805710806,-9.6016,-2.6719,-0.8359,-0.0684,-0.0566,0.0547,25.0,-22.625,-14.25,0.0898,0.3242,0.043
0.006240,0.06340471853131224,0.6793355015757356,0.26171479515714013,-0.6826334916795871,-9.5977,-2.6523,-0.7969,-0.0527,-0.0352,0.0508,25.0,-22.625,-14.25,0.0898,0.3242,0.043
0.006307,0.06340427593546198,0.6793352757699215,0.26171437271994785,-0.6826339194616019,-9.5273,-2.5391,-0.7109,-0.0469,-0.0332,0.043,25.0,-22.625,-14.25,0.0898,0.3242,0.043
0.006374,0.0634039661135895,0.6793351177031801,0.26171407700928073,-0.6826342189133604,-9.5273,-2.5391,-0.7109,-0.0469,-0.0332,0.043,25.0,-22.625,-14.25,-0.1914,0.1016,-0.1406
0.006434,0.06340374923493942,0.6793350070546426,0.2617138700085908,-0.6826344285326869,-9.4844,-2.5,-0.6836,-0.0469,-0.0332,0.043,23.1875,-22.6875,-14.75,-0.1914,0.1016,-0.1406
0.006498,0.06616337812497776,0.6784322328929588,0.2630627055273688,-0.6827518771322317,-9.4766,-2.4727,-0.7305,-0.0469,-0.0332,0.043,23.1875,-22.6875,-14.75,-0.1914,0.1016,-0.1406
0.006561,0.06809472449915362,0.6777961444913877,0.26400528886978947,-0.6828299220572962,-9.5703,-2.4883,-0.6328,-0.0469,-0.0332,0.043,23.1875,-22.6875,-14.75,-0.2305,0.1445,-0.0625
0.006627,0.06944646629117507,0.67734885333949,0.2646643087068955,-0.6828825103164144,-9.6016,-2.5938,-0.5664,-0.0469,-0.0332,0.043,23.1875,-22.6875,-14.75,-0.2305,0.1445,-0.0625
0.006680,0.07072355933104817,0.6769540843443325,0.26521888965286694,-0.6829277314741102,-9.5156,-2.6641,-0.5859,-0.0469,-0.0332,0.043,23.1875,-22.6875,-14.75,-0.2305,0.1445,-0.0625
0.006731,0.07161744818064554,0.6766768979307797,0.2656067706693465,-0.6829585348302422,-9.4336,-2.7305,-0.6445,-0.0469,-0.0332,0.043,24.6875,-22.25,-13.8125,-0.2305,0.1445,-0.0625
0.006787,0.07224313457604324,0.6764824513583018,0.26587812849322173,-0.6829796800050733,-9.3086,-2.7695,-0.6914,-0.0469,-0.0332,0.043,24.6875,-22.25,-13.8125,-0.0781,-0.1133,-0.082
0.006855,0.07313022213597056,0.6762179742382949,0.2662147916283682,-0.6830160368876157,-9.2188,-2.7109,-0.7109,-0.0469,-0.0332,0.043,24.6875,-22.25,-13.8125,-0.0781,-0.1133,-0.082
0.006912,0.07313022213597056,0.6762179742382949,0.2662147916283682,-0.6830160368876157,-9.0938,-2.4414,-0.5781,-0.0195,-0.0215,0.0117,23.9375,-23.375,-14.75,-0.0781,-0.1133,-0.082
0.006964,0.07313022213597056,0.6762179742382949,0.2662147916283682,-0.6830160368876157,-9.1602,-2.3281,-0.5391,-0.002,-0.0195,0.0,23.9375,-23.375,-14.75,-0.0781,-0.1133,-0.082
0.007012,0.07313022213597056,0.6762179742382949,0.2662147916283682,-0.6830160368876157,-9.3359,-2.1836,-0.4336,0.0059,-0.0215,-0.0117,23.9375,-23.375,-14.75,-0.0781,-0.1133,-0.082
0.007060,0.07313022213597056,0.6762179742382949,0.2662147916283682,-0.6830160368876157,-9.3359,-2.1836,-0.4336,0.0059,-0.0215,-0.0117,23.9375,-23.375,-14.75,0.0625,0.3633,0.2617
0.007111,0.07313022213597056,0.6762179742382949,0.2662147916283682,-0.6830160368876157,-9.4102,-2.3086,-0.4727,0.0059,-0.0215,-0.0117,23.9375,-23.375,-14.75,0.0625,0.3633,0.2617
0.007164,0.07313022213597056,0.6762179742382949,0.2662147916283682,-0.6830160368876157,-9.3672,-2.3281,-0.4414,0.0059,-0.0215,-0.0117,23.9375,-23.375,-14.75,0.0625,0.3633,0.2617
0.007217,0.07313022213597056,0.6762179742382949,0.2662147916283682,-0.6830160368876157,-9.3203,-2.3164,-0.4219,0.0059,-0.0215,-0.0117,23.9375,-23.375,-14.75,0.0625,0.3633,0.2617
0.007271,0.07313022213597056,0.6762179742382949,0.2662147916283682,-0.6830160368876157,-9.2188,-2.3281,-0.5664,0.0059,-0.0215,-0.0117,23.9375,-23.375,-14.75,0.0625,0.3633,0.2617
0.007324,0.07313022213597056,0.6762179742382949,0.2662147916283682,-0.6830160368876157,-9.2305,-2.2891,-0.5664,0.0059,-0.0215,-0.0117,23.9375,-23.375,-14.75,0.0625,0.3633,0.2617
0.007380,0.07429091224073638,0.6754303703714228,0.2671394794317229,-0.6833089884285951,-9.2812,-2.3164,-0.6055,-0.1133,-0.0195,-0.0176,25.0,-21.5625,-14.25,0.0625,0.3633,0.2617
0.007525,0.07510326268886339,0.6748778816056272,0.2677862953752181,-0.6835128710289259,-9.3594,-2.4141,-0.5859,-0.1133,-0.0195,-0.0176,23.9375,-23.0,-14.25,0.0625,0.3633,0.2617
0.007592,0.07567184099248198,0.6744905694871806,0.2682388368229972,-0.6836550084461555,-9.4492,-2.4883,-0.5469,-0.1133,-0.0195,-0.0176,23.9375,-23.0,-14.25,0.0625,0.3633,0.2617
0.007641,0.0760698118702427,0.6742191724676165,0.26855550240343573,-0.6837542199708505,-9.5703,-2.75,-0.4336,-0.1133,-0.0195,-0.0176,23.9375,-23.0,-14.25,0.0625,0.3633,0.2617
0.007692,0.07697865668259701,0.6740615676248534,0.2693481112015998,-0.6834960749401557,-9.4766,-2.9102,-0.3086,-0.1133,-0.0195,-0.0176,23.9375,-23.0,-14.25,0.0625,0.3633,0.2617
0.007746,0.07761477492065441,0.6739506247119413,0.26990268760796104,-0.6833147454770748,-9.4414,-3.0352,-0.2109,-0.1133,-0.0195,-0.0176,23.9375,-22.3125,-15.5625,0.0625,0.3633,0.2617
0.007809,0.0783900023325866,0.6739625131671579,0.270350708350925,-0.6830373583295855,-9.3242,-3.1602,-0.2031,-0.1133,-0.0195,-0.0176,23.9375,-22.3125,-15.5625,0.0625,0.3633,0.2617
0.007887,0.07893261789470878,0.6739704826482028,0.27066417998711606,-0.6828428311281729,-9.2695,-3.2188,-0.2969,-0.1133,-0.0195,-0.0176,24.6875,-23.375,-13.375,0.0625,0.3633,0.2617
0.007939,0.07931242662134233,0.6739758885814958,0.2708835396638275,-0.682706487836034,-9.5938,-2.8555,-0.1953,-0.1133,-0.0195,-0.0176,24.6875,-23.375,-13.375,-0.1328,-0.5,0.3242
0.007990,0.07987774968635823,0.6740951137493728,0.2709752585755029,-0.6824864335385744,-9.5977,-2.7773,-0.0977,-0.1133,-0.0195,-0.0176,24.6875,-23.375,-13.375,-0.1328,-0.5,0.3242
0.008044,0.08027345247293569,0.6741784136778137,0.27103939805393823,-0.6823322387675235,-9.0703,-2.3555,-0.6641,-0.1133,-0.0195,-0.0176,24.6875,-23.375,-13.375,-0.1328,-0.5,0.3242
0.008093,0.08055043189491021,0.67423664613488,0.2710842642721419,-0.6822242260388908,-9.0703,-2.3555,-0.6641,-0.1133,-0.0195,-0.0176,23.9375,-21.5625,-14.6875,0.3086,0.1367,-0.0469
0.008141,0.08074431061402917,0.6742773707296856,0.27111565511181035,-0.6821485799872498,-9.2734,-2.2422,-0.4727,-0.1133,-0.0195,-0.0176,23.625,-20.5625,-13.75,0.3086,0.1367,-0.0469
0.008190,0.0808800218390719,0.6743058591584831,0.27113762101602484,-0.6820956097510241,-9.2148,-2.5469,-0.5664,-0.1133,-0.0195,-0.0176,23.625,-20.5625,-13.75,0.3086,0.1367,-0.0469
0.008239,0.08097501744236622,0.6743257917787796,0.27115299332688847,-0.6820585219040949,-9.1562,-2.5273,-0.6328,-0.0801,-0.0293,-0.0254,23.625,-20.5625,-13.75,0.3086,0.1367,-0.0469
0.008287,0.08104151301323642,0.6743397400142166,0.27116375203178605,-0.6820325562538261,-9.3086,-2.3945,-0.5391,-0.084,-0.0273,-0.0332,23.625,-20.5625,-13.75,0.3086,0.1367,-0.0469
0.008336,0.08108805907812593,0.6743495014895157,0.2711712821601061,-0.6820143783289528,-9.4492,-2.2617,-0.4141,-0.084,-0.0273,-0.0332,23.625,-20.5625,-13.75,0.0703,0.1211,0.0625
0.008386,0.08112064079387328,0.6743563333751004,0.2711765527575218,-0.6820016528635611,-9.5312,-2.1562,-0.2969,-0.084,-0.0273,-0.0332,23.625,-20.5625,-13.75,-0.0742,0.2539,0.1875
0.008435,0.08123360808420234,0.6738824611373752,0.27181077468029463,-0.6822040986807058,-9.6211,-2.1719,-0.2305,-0.084,-0.0273,-0.0332,23.625,-20.5625,-13.75,-0.0742,0.2539,0.1875
0.008483,0.08131265144462874,0.6735504812727253,0.2722546151931863,-0.6823455329950763,-9.6133,-2.2422,-0.3555,-0.084,-0.0273,-0.0332,23.625,-20.5625,-13.75,-0.2773,0.293,0.3047
0.008531,0.08136796505836351,0.6733179642771683,0.2725652461340212,-0.6824444005512912,-9.5508,-2.2773,-0.4336,-0.084,-0.0273,-0.0332,24.0,-20.9375,-14.6875,-0.2773,0.293,0.3047
0.008580,0.08176793235500165,0.6727155105508343,0.27335686515260327,-0.6826740593992566,-9.4727,-2.375,-0.6055,-0.084,-0.0273,-0.0332,24.0,-20.9375,-14.6875,-0.2773,0.293,0.3047
0.008630,0.08204785198823598,0.6722933101506025,0.2739108049308232,-0.6828343328018963,-9.4727,-2.375,-0.6055,-0.084,-0.0273,-0.0332,24.0,-20.9375,-14.6875,-0.0898,-0.0195,-0.0898
0.008686,0.08224376761639546,0.6719975332281478,0.27429846803684427,-0.6829462851909986,-9.3945,-2.8359,-0.6914,-0.084,-0.0273,-0.0332,24.0,-20.9375,-14.6875,-0.0898,-0.0195,-0.0898
0.008739,0.08334314299919103,0.6712384536904075,0.27550721060502364,-0.6830729358618788,-9.2969,-2.9609,-0.6719,-0.084,-0.0273,-0.0332,24.0,-20.9375,-14.6875,-0.0898,-0.0195,-0.0898
0.008788,0.08441063468127172,0.670600370119124,0.27655647125381994,-0.68314457222204,-9.2734,-3.0469,-0.6641,-0.084,-0.0273,-0.0332,24.0,-20.9375,-14.6875,-0.0898,-0.0195,-0.0898
0.008850,0.08539759869522945,0.6700614707073795,0.2774400315525403,-0.6831924359232012,-9.25,-3.168,-0.7305,-0.084,-0.0273,-0.0332,24.0,-20.9375,-14.6875,-0.0898,-0.0195,-0.0898
0.008907,0.08629984898344141,0.6696049000417894,0.27815295309549404,-0.683236817355239,-9.1836,-3.168,-0.7891,-0.084,-0.0273,-0.0332,24.0,-20.9375,-14.6875,-0.0898,-0.0195,-0.0898
0.008955,0.08693135610016575,0.6692846845208922,0.27865175289161415,-0.6832672617671556,-9.1836,-3.168,-0.7891,-0.0898,-0.0977,0.0527,23.1875,-22.3125,-16.4375,-0.0898,-0.0195,-0.0898
0.009004,0.08737337946868691,0.6690602308868981,0.27900079393614813,-0.683288267855369,-9.1523,-3.0547,-0.7109,-0.0898,-0.0977,0.0527,24.3125,-21.25,-15.5625,-0.0898,-0.0195,-0.0898
0.009051,0.08768278169022392,0.668902964290941,0.2792450655160377,-0.6833028227241569,-9.2344,-2.9766,-0.6836,-0.0898,-0.0977,0.0527,24.3125,-21.25,-15.5625,-0.0898,-0.0195,-0.0898
0.009099,0.08789935731093905,0.6687928041300432,0.2794160284003089,-0.6833129379729285,-9.2773,-2.9414,-0.6836,0.0234,-0.0977,0.082,24.3125,-21.25,-15.5625,-0.0898,-0.0195,-0.0898
0.009151,0.08805095804768902,0.6687156556180042,0.2795356896406947,-0.683319982830422,-9.3086,-2.8555,-0.6719,0.0234,-0.0977,0.082,23.9375,-21.5625,-14.6875,-0.0898,-0.0195,-0.0898
0.009204,0.0881570779888527,0.6686616335673492,0.27961944664369287,-0.6833248967030152,-9.3672,-2.75,-0.625,0.0234,-0.0977,0.082,23.5625,-21.5625,-15.5625,-0.0898,-0.0195,-0.0898
0.009253,0.08823136201958494,0.6686238090863371,0.27967807395065003,-0.683328327841237,-9.4062,-2.6992,-0.5859,0.0234,-0.0977,0.082,23.1875,-21.9375,-15.5625,-0.0898,-0.0195,-0.0898
0.009302,0.08828336112438165,0.6685973273907952,0.27971911198960314,-0.6833307254486775,-9.4375,-2.6914,-0.5664,0.0234,-0.0977,0.082,23.5625,-23.375,-14.75,-0.0898,-0.0195,-0.0898
0.009362,0.08831976081039743,0.6685787878814474,0.2797478382268432,-0.6833324017290389,-9.4922,-2.6133,-0.5586,0.0234,-0.0977,0.082,23.1875,-21.9375,-15.5625,-0.0898,-0.0195,-0.0898
0.009411,0.0883452408655814,0.6685658090248224,0.27976794649788295,-0.6833335741288766,-9.5156,-2.4883,-0.4414,0.0234,-0.0977,0.082,23.1875,-21.9375,-15.5625,-0.0898,-0.0195,-0.0898
0.009459,0.08836307712421332,0.6685567231936875,0.2797820223083299,-0.683334394324419,-9.5234,-2.4609,-0.4141,0.0566,-0.041,0.0684,23.1875,-21.9375,-15.5625,-0.0898,-0.0195,-0.0898
0.009509,0.08837556267275361,0.6685503627720378,0.27979187543290207,-0.6833349682267038,-9.5508,-2.5391,-0.3555,0.0469,-0.0332,0.0605,23.625,-21.3125,-15.5625,-0.0898,-0.0195,-0.0898
0.009555,0.08838430268059708,0.6685459102890585,0.279798772681138,-0.6833353698452669,-9.5352,-2.5859,-0.3555,0.0469,-0.0332,0.0605,23.625,-21.3125,-15.5625,-0.1406,-0.0859,0.082
0.009610,0.08839042077603698,0.6685427934440322,0.2798036008078968,-0.6833356509242148,-9.4961,-2.6133,-0.3477,0.0469,-0.0332,0.0605,22.4375,-22.6875,-16.0,-0.1406,-0.0859,0.082
0.009663,0.08839470350739971,0.6685406115896783,0.279806980538756,-0.6833358476539352,-9.4961,-2.6133,-0.3477,0.0469,-0.0332,0.0605,22.4375,-22.6875,-16.0,-0.0898,-0.168,0.0742
0.009717,0.08839770146532153,0.6685390842535367,0.2798093463823133,-0.6833359853528812,-9.3828,-2.6055,-0.4219,0.0469,-0.0332,0.0605,22.4375,-22.6875,-16.0,-0.0898,-0.168,0.0742
0.009770,0.0883998000684265,0.6685380150944586,0.2798110024963812,-0.6833360817367935,-9.3242,-2.5742,-0.4414,0.0469,-0.0332,0.0605,22.4375,-22.6875,-16.0,-0.0898,-0.168,0.0742
0.009819,0.0884012691135792,0.6685372666678733,0.2798121617933256,-0.6833361492032332,-9.2578,-2.4805,-0.4805,0.0195,-0.0605,-0.0059,22.4375,-22.6875,-16.0,-0.0898,-0.168,0.0742
0.009931,0.08840229746136347,0.668536742759295,0.2798129733134447,-0.68333619642884,-9.2852,-2.4609,-0.4531,0.0195,-0.0605,-0.0059,22.4375,-22.6875,-16.0,0.1484,-0.0352,-0.0898
0.010025,0.0884030173161817,0.668536376016652,0.2798135413862511,-0.6833362294864816,-9.2305,-2.4531,-0.4414,0.0195,-0.0605,-0.0059,22.4375,-22.6875,-16.0,0.1211,-0.0156,-0.0703
0.010086,0.08969410139085268,0.6675802690580215,0.278075646236676,-0.684810548626525,-9.2266,-2.4531,-0.4609,0.0195,-0.0605,-0.0059,22.4375,-22.6875,-16.0,0.1211,-0.0156,-0.0703
0.010141,0.09059746116363662,0.6669078940802348,0.2768578118454993,-0.6858394220692565,-9.2969,-2.4336,-0.3164,0.0195,-0.0605,-0.0059,22.4375,-22.6875,-16.0,0.1211,-0.0156,-0.0703
0.010194,0.09122961729435425,0.6664357125824982,0.27600468712970827,-0.6865580897530924,-9.3164,-2.3945,-0.3086,0.0195,-0.0605,-0.0059,23.5625,-21.5625,-15.5625,0.1211,-0.0156,-0.0703
0.010249,0.09151992082511018,0.6659090958376533,0.275370839958163,-0.6872845703735682,-9.3438,-2.375,-0.2617,0.0195,-0.0605,-0.0059,23.5625,-21.5625,-15.5625,0.1211,-0.0156,-0.0703
0.010298,0.09172306103205768,0.66553995610487,0.27492693966762666,-0.6877925739260569,-9.3398,-2.3281,-0.3477,0.0195,-0.0605,-0.0059,23.25,-21.625,-15.5625,0.1211,-0.0156,-0.0703
0.010348,0.09186522322738834,0.6652813103566656,0.2746161090867755,-0.6881479139556701,-9.3086,-2.3086,-0.3867,0.0195,-0.0605,-0.0059,23.625,-21.3125,-15.5625,0.1211,-0.0156,-0.0703
0.010402,0.09181667350227612,0.6649042837689687,0.27443431683700636,-0.6885911687168641,-9.3047,-2.3281,-0.4023,0.0195,-0.0605,-0.0059,23.625,-21.3125,-15.5625,0.1211,-0.0156,-0.0703
0.010450,0.09178266789185743,0.6646402143172939,0.27430699980501877,-0.688901297171724,-9.3008,-2.3359,-0.4141,0.0195,-0.0605,-0.0059,23.625,-21.3125,-15.9375,0.1211,-0.0156,-0.0703
0.010499,0.09175885369962167,0.6644552912339236,0.274217847010982,-0.6891183142970696,-9.3047,-2.375,-0.3945,0.0195,-0.0605,-0.0059,22.875,-21.625,-15.5625,0.0938,0.1328,-0.0664
0.010547,0.09174217868349059,0.6643258081849139,0.2741554247344554,-0.6892701910851344,-9.3125,-2.4023,-0.3164,0.0195,-0.0605,-0.0059,22.875,-21.625,-15.5625,0.0938,0.1328,-0.0664
0.010599,0.09173050364544755,0.6642351516885985,0.2741117214961024,-0.6893764879226882,-9.3125,-2.4023,-0.3164,0.0137,-0.0176,-0.0371,22.9375,-19.125,-14.25,0.0938,0.1328,-0.0664
0.010652,0.0914812599829892,0.6638039344865301,0.2743179274681481,-0.6897428436031121,-9.3398,-2.3945,-0.2617,0.0137,-0.0176,-0.0371,22.9375,-19.125,-14.25,0.0938,0.1328,-0.0664
0.010705,0.09130676651707749,0.6635019150435089,0.27446220212934225,-0.689999117915454,-9.3555,-2.3359,-0.2891,0.0117,-0.0078,-0.041,22.9375,-19.125,-14.25,0.0938,0.1328,-0.0664
0.010756,0.09118460995199172,0.6632904195507513,0.2745631602591953,-0.6901784242270798,-9.3711,-2.3164,-0.2969,0.0117,-0.0078,-0.041,23.5625,-21.9375,-15.125,0.0938,0.1328,-0.0664
0.010808,0.09109909494659268,0.6631423326669867,0.27463381418514854,-0.6903038965781785,-9.3516,-2.3164,-0.3086,0.0117,-0.0078,-0.041,22.4375,-23.0625,-16.4375,0.0938,0.1328,-0.0664
0.010873,0.09103923182235177,0.6630386522819627,0.2746832636934555,-0.6903917065666608,-9.3516,-2.3359,-0.3477,0.0117,-0.0078,-0.041,22.4375,-23.0625,-16.4375,0.0938,0.1328,-0.0664
0.010931,0.0909973263714376,0.6629660664597269,0.2747178742951742,-0.6904531634071265,-9.4336,-2.3164,-0.3164,-0.0215,-0.002,-0.0449,22.4375,-23.0625,-16.4375,0.0938,0.1328,-0.0664
0.010981,0.09096799195011884,0.6629152517269972,0.27474209971860375,-0.6904961782012323,-9.4375,-2.3672,-0.3359,-0.0215,-0.002,-0.0449,23.625,-21.3125,-15.5625,0.0938,0.1328,-0.0664
0.011036,0.09094745756783319,0.6628796791484016,0.2747590565283215,-0.6905262860961383,-9.3984,-2.3828,-0.2969,-0.0215,-0.002,-0.0449,23.625,-21.3125,-15.5625,0.0938,0.1328,-0.0664
0.011085,0.09093308336597229,0.6628547772445443,0.2747709258062459,-0.6905473604071058,-9.4258,-2.375,-0.2969,-0.0215,-0.002,-0.0449,23.9375,-22.6875,-17.3125,0.0938,0.1328,-0.0664
0.011138,0.09092302136344815,0.662837345381325,0.2747792340574734,-0.6905621118225125,-9.4414,-2.3828,-0.2891,-0.0215,-0.002,-0.0449,23.25,-20.5625,-15.9375,0.0938,0.1328,-0.0664
0.011187,0.0909159779348736,0.6628251428226462,0.2747850497114721,-0.6905724375135082,-9.457,-2.4141,-0.3281,-0.0215,-0.002,-0.0449,22.875,-21.9375,-14.25,0.0938,0.1328,-0.0664
0.011237,0.09091104752396732,0.6628166009107692,0.27478912060771715,-0.6905796653470377,-9.4688,-2.4883,-0.3477,-0.0215,-0.002,-0.0449,22.875,-21.9375,-14.25,0.0938,0.1328,-0.0664
0.011287,0.0909075962325514,0.6628106215159679,0.27479197020363805,-0.6905847247546375,-9.4688,-2.5273,-0.3359,-0.082,0.0273,-0.0176,22.875,-21.9375,-14.25,0.0938,0.1328,-0.0664
0.011342,0.09090518032780018,0.6628064359138218,0.2747939649044697,-0.690588266301179,-9.4219,-2.5859,-0.3867,-0.082,0.0273,-0.0176,23.625,-19.875,-15.9375,0.0938,0.1328,-0.0664
0.011390,0.09090348919486672,0.6628035059810099,0.27479536118642695,-0.6905907453636353,-9.3359,-2.6719,-0.3867,-0.082,0.0273,-0.0176,23.625,-19.875,-15.9375,0.0938,0.1328,-0.0664
0.011439,0.09090230540254099,0.6628014550234275,0.2747963385791288,-0.6905924806967096,-9.3203,-2.6641,-0.3555,-0.0684,0.0195,-0.002,23.625,-19.875,-15.9375,0.0938,0.1328,-0.0664
0.011490,0.09090147674864434,0.6628000193515082,0.27479702275142326,-0.6905936954240965,-9.3047,-2.6719,-0.3945,-0.0586,0.0195,0.0,23.625,-19.875,-15.9375,0.0938,0.1328,-0.0664
0.011540,0.09090089669153736,0.6627990143808294,0.27479750167054035,-0.6905945457300576,-9.3477,-2.7109,-0.3672,-0.0586,0.0195,0.0,24.3125,-21.25,-15.9375,0.0938,0.1328,-0.0664
0.011587,0.09090049065205025,0.6627983109015083,0.27479783691304105,-0.6905951409423886,-9.3633,-2.625,-0.3672,-0.0586,0.0195,0.0,24.3125,-21.25,-15.9375,0.0938,0.1328,-0.0664
0.011636,0.09090020642477682,0.6627978184662817,0.27479807158225367,-0.6905955575899294,-9.3516,-2.625,-0.375,-0.0371,0.0137,0.0078,24.3125,-21.25,-15.9375,0.0938,0.1328,-0.0664
0.011686,0.09090000746595549,0.6627974737619249,0.2747982358503645,-0.6905958492425414,-9.3398,-2.6055,-0.3477,-0.0371,0.0137,0.0078,23.1875,-23.75,-15.5625,0.0938,0.1328,-0.0664
0.011739,0.09089986819497589,0.6627972324691324,0.27479835083782456,-0.6905960533989509,-9.2852,-2.6641,-0.3086,-0.0371,0.0137,0.0078,23.9375,-23.0,-15.5625,0.0938,0.1328,-0.0664
0.011785,0.09089977070542997,0.66279706356438,0.2747984313289036,-0.6905961963081677,-9.3164,-2.7305,-0.3672,-0.0371,0.0137,0.0078,23.9375,-23.0,-15.5625,0.0938,0.1328,-0.0664
0.011860,0.09089970246284719,0.6627969453312059,0.2747984876725634,-0.690596296344442,-9.3438,-2.75,-0.3867,-0.0332,0.0176,0.0176,23.9375,-23.0,-15.5625,0.0938,0.1328,-0.0664
0.011914,0.09089965469310952,0.6627968625680963,0.2747985271130606,-0.6905963663697153,-9.3906,-2.7305,-0.3281,-0.0332,0.0176,0.0176,23.25,-21.625,-15.9375,0.0938,0.1328,-0.0664
0.011969,0.09089962125434274,0.6627968046340008,0.27479855472136444,-0.6905964153873264,-9.4258,-2.6445,-0.2695,-0.0332,0.0176,0.0176,23.25,-21.625,-15.9375,0.0938,0.1328,-0.0664
0.012016,0.09089962125434274,0.6627968046340008,0.27479855472136444,-0.6905964153873264,-9.3867,-2.6055,-0.2891,-0.0117,0.0293,-0.0039,23.25,-21.625,-15.9375,0.0938,0.1328,-0.0664
0.012062,0.09089962125434274,0.6627968046340008,0.27479855472136444,-0.6905964153873264,-9.3867,-2.5664,-0.2891,-0.0117,0.0215,-0.0059,23.25,-21.625,-15.9375,0.0938,0.1328,-0.0664
0.012108,0.09089962125434274,0.6627968046340008,0.27479855472136444,-0.6905964153873264,-9.3906,-2.5469,-0.3477,-0.0117,0.0215,-0.0059,23.25,-20.5625,-15.9375,0.0938,0.1328,-0.0664
0.012136,0.09089962125434274,0.6627968046340008,0.27479855472136444,-0.6905964153873264,-9.4258,-2.5742,-0.4023,-0.0117,0.0215,-0.0059,23.25,-20.5625,-15.9375,0.0938,0.1328,-0.0664
0.012163,0.09089962125434274,0.6627968046340008,0.27479855472136444,-0.6905964153873264,-9.4219,-2.5664,-0.3672,-0.0254,0.0078,0.0,23.25,-20.5625,-15.9375,0.0938,0.1328,-0.0664
0.012190,0.09089962125434274,0.6627968046340008,0.27479855472136444,-0.6905964153873264,-9.4375,-2.5586,-0.3477,-0.0254,0.0078,0.0,23.25,-21.625,-15.125,0.0938,0.1328,-0.0664
0.026988,0.09089962125434274,0.6627968046340008,0.27479855472136444,-0.6905964153873264,-9.4062,-2.5859,-0.3164,-0.0254,0.0078,0.0,23.25,-20.5625,-16.4375,0.0938,0.1328,-0.0664
0.029632,0.09089962125434274,0.6627968046340008,0.27479855472136444,-0.6905964153873264,-9.3555,-2.5273,-0.3672,-0.0254,0.0078,0.0,23.25,-20.5625,-16.4375,0.0938,0.1328,-0.0664
0.044510,0.09089959784724085,0.662796764080192,0.2747985740471467,-0.6905964496995992,-9.3555,-2.5391,-0.4219,-0.0312,-0.002,0.002,23.25,-20.5625,-16.4375,0.0938,0.1328,-0.0664
0.061172,0.09089958146229402,0.6627967356925671,0.2747985875751733,-0.6905964737181525,-9.3008,-2.5078,-0.3867,-0.0312,-0.002,0.002,23.1875,-22.3125,-16.4375,0.0938,0.1328,-0.0664
0.064197,0.09089956999284843,0.662796715821259,0.2747985970447773,-0.6905964905311136,-9.3164,-2.6133,-0.4141,-0.0312,-0.002,0.002,23.1875,-22.3125,-16.4375,0.0938,0.1328,-0.0664
0.079888,0.09089956196424857,0.6627967019113639,0.27479860367349,-0.6905965023001683,-9.3516,-2.625,-0.4219,-0.0449,0.0059,0.0,23.1875,-22.3125,-16.4375,0.0938,0.1328,-0.0664
0.085024,0.09089955634423713,0.6627966921744518,0.2747986083135819,-0.6905965105384941,-9.3516,-2.6055,-0.4023,-0.0488,0.0039,0.0,23.1875,-22.3125,-16.4375,0.0938,0.1328,-0.0664
0.088597,0.09089955241023503,0.6627966853586235,0.27479861156164126,-0.6905965163053133,-9.3711,-2.5859,-0.375,-0.0488,0.0039,0.0,23.1875,-22.3125,-16.4375,0.0195,-0.0508,0.0039
0.091034,0.09089954965643772,0.6627966805875509,0.27479861383527937,-0.6905965203420806,-9.3828,-2.6055,-0.3867,-0.0488,0.0039,0.0,23.5625,-23.0625,-16.4375,0.0195,-0.0508,0.0039
0.102562,0.09195156047178198,0.6628711982660245,0.27693467885230066,-0.6895316299381357,-9.4023,-2.6523,-0.3477,-0.0488,0.0039,0.0,23.5625,-23.0625,-16.4375,0.0195,-0.0508,0.0039
0.125712,0.09268760754181049,0.6629206758883948,0.2784288268145568,-0.6887834008500197,-9.4023,-2.6523,-0.3477,-0.0488,0.0039,0.0,23.5625,-23.0625,-16.4375,-0.0273,-0.0898,0.0586
0.131368,0.09320266387997785,0.6629539946382292,0.27947419265066564,-0.6882582655378352,-9.4219,-2.7383,-0.3867,-0.0488,0.0039,0.0,23.5625,-23.0625,-16.4375,-0.0273,-0.0898,0.0586
0.144657,0.09389151070369625,0.6629052968022501,0.2804408774700218,-0.6878181924994009,-9.4297,-2.7695,-0.375,-0.0488,0.0039,0.0,23.5625,-23.0625,-16.4375,-0.0273,-0.0898,0.0586
0.155994,0.09437361153689267,0.6628705754144799,0.28111728582955636,-0.6875094859730906,-9.4258,-2.6719,-0.3281,-0.0488,0.0039,0.0,23.5625,-23.0625,-16.4375,-0.0469,-0.1016,0.0703
0.161811,0.09471103620661248,0.6628459603875024,0.2815906376770382,-0.6872930708157023,-9.3125,-2.5859,-0.375,-0.0488,0.0039,0.0,23.5625,-23.0625,-16.4375,-0.0469,-0.1016,0.0703
0.170909,0.0950695231897048,0.6628147066578428,0.282018779587529,-0.6870981431779019,-9.3555,-2.5391,-0.3945,-0.0488,0.0039,0.0,23.5625,-23.0625,-16.4375,-0.0469,-0.1016,0.0703
0.190365,0.09532044892753258,0.6627926902907612,0.28231842566513005,-0.6869615478637442,-9.3555,-2.5391,-0.3477,-0.0488,0.0039,0.0,23.5625,-22.3125,-15.5625,0.0195,0.0391,0.0508
0.198030,0.09549609046173159,0.6627772107567704,0.28252815294537914,-0.6868658591029786,-9.3164,-2.6055,-0.4219,-0.0488,0.0039,0.0,23.9375,-22.6875,-16.875,0.0195,0.0391,0.0508
0.208233,0.09561903703021479,0.6627663416642325,0.2826749506048395,-0.6867988413028779,-9.3359,-2.6445,-0.3945,-0.0488,0.0039,0.0,23.9375,-22.6875,-16.875,0.0703,-0.0273,-0.043
0.226290,0.09570509887417694,0.6627587168814774,0.2827777039278344,-0.6867519111064809,-9.3633,-2.6328,-0.3867,-0.0488,0.0039,0.0,22.8125,-22.0,-16.875,0.0703,-0.0273,-0.043
0.233901,0.0960636988182231,0.6626219958070192,0.28308477467908355,-0.686707264259653,-9.3516,-2.625,-0.4141,-0.0488,0.0039,0.0,22.8125,-22.0,-16.875,0.0703,-0.0273,-0.043
0.248466,0.096314705159237,0.6625261949086246,0.28329968343752315,-0.686675911907639,-9.3203,-2.6445,-0.4023,-0.0488,0.0039,0.0,22.8125,-22.0,-16.875,0.0586,-0.0391,-0.0117
0.259466,0.09649040295738716,0.6624590871552483,0.28345009962072193,-0.6866539164728903,-9.3398,-2.5742,-0.4023,-0.0488,0.0039,0.0,22.875,-20.25,-17.25,0.0586,-0.0391,-0.0117
0.265338,0.09670474493059897,0.6623613806023699,0.28361936006729865,-0.6866481285123016,-9.3672,-2.5273,-0.3555,-0.0488,0.0039,0.0,22.875,-20.25,-17.25,0.0586,-0.0391,-0.0117
0.277346,0.09670474493059897,0.6623613806023699,0.28361936006729865,-0.6866481285123016,-9.3867,-2.5,-0.3555,0.002,-0.0059,0.0059,22.875,-20.25,-17.25,0.0586,-0.0391,-0.0117
0.291891,0.09670474493059897,0.6623613806023699,0.28361936006729865,-0.6866481285123016,-9.4023,-2.5078,-0.3672,0.002,-0.0059,0.0059,23.25,-21.3125,-15.5625,-0.0273,0.0781,0.0156
0.332181,0.09670474493059897,0.6623613806023699,0.28361936006729865,-0.6866481285123016,-9.3945,-2.4805,-0.375,0.002,-0.0059,0.0059,23.5625,-22.3125,-15.125,-0.0273,0.0781,0.0156
0.353455,0.09670474493059897,0.6623613806023699,0.28361936006729865,-0.6866481285123016,-9.3555,-2.5391,-0.3477,0.002,-0.0059,0.0059,23.1875,-23.375,-14.75,-0.0273,0.0781,0.0156
0.362058,0.09670474493059897,0.6623613806023699,0.28361936006729865,-0.6866481285123016,-9.3555,-2.5664,-0.3867,0.002,-0.0059,0.0059,24.375,-20.5625,-15.5625,0.0195,0.0117,-0.0039
0.364661,0.09670474493059897,0.6623613806023699,0.28361936006729865,-0.6866481285123016,-9.3516,-2.625,-0.4141,0.002,-0.0059,0.0059,24.375,-20.5625,-15.5625,0.0195,0.0117,-0.0039
0.373232,0.09670474493059897,0.6623613806023699,0.28361936006729865,-0.6866481285123016,-9.3398,-2.6445,-0.3555,0.002,-0.0059,0.0059,24.375,-20.5625,-15.5625,0.0039,-0.0742,-0.0312
0.375694,0.09670474493059897,0.6623613806023699,0.28361936006729865,-0.6866481285123016,-9.3711,-2.6133,-0.3672,0.002,-0.0059,0.0059,22.8125,-22.6875,-16.4375,0.0039,-0.0742,-0.0312
0.391157,0.09670474493059897,0.6623613806023699,0.28361936006729865,-0.6866481285123016,-9.3633,-2.625,-0.3555,0.002,-0.0059,0.0059,22.875,-20.9375,-15.5625,0.0039,-0.0742,-0.0312
0.396415,0.09670474493059897,0.6623613806023699,0.28361936006729865,-0.6866481285123016,-9.3203,-2.5469,-0.4141,0.002,-0.0059,0.0059,23.5625,-21.3125,-16.4375,0.0039,-0.0742,-0.0312
0.429276,0.09670474493059897,0.6623613806023699,0.28361936006729865,-0.6866481285123016,-9.3398,-2.5586,-0.375,0.002,-0.0059,0.0059,23.1875,-22.3125,-15.5625,0.0312,0.0195,0.0156
0.431672,0.09670474493059897,0.6623613806023699,0.28361936006729865,-0.6866481285123016,-9.3438,-2.5,-0.3945,0.002,-0.0059,0.0059,23.1875,-22.3125,-15.5625,0.0312,0.0195,0.0156
0.440576,0.09670474493059897,0.6623613806023699,0.28361936006729865,-0.6866481285123016,-9.3438,-2.5,-0.3945,0.002,-0.0059,0.0059,23.1875,-22.3125,-15.5625,0.0312,0.0195,0.0156
0.465600,0.09670474493059897,0.6623613806023699,0.28361936006729865,-0.6866481285123016,-9.3555,-2.4609,-0.3867,0.002,-0.0059,0.0059,23.1875,-22.3125,-15.5625,0.0312,0.0195,0.0156
0.471012,0.09670474493059897,0.6623613806023699,0.28361936006729865,-0.6866481285123016,-9.3828,-2.5391,-0.3945,0.002,-0.0059,0.0059,23.1875,-22.3125,-15.5625,0.0312,0.0195,0.0156
0.473907,0.09670474493059897,0.6623613806023699,0.28361936006729865,-0.6866481285123016,-9.3828,-2.5391,-0.3945,0.002,-0.0059,0.0059,23.1875,-21.625,-16.4375,0.0312,0.0195,0.0156
0.483349,0.09670474493059897,0.6623613806023699,0.28361936006729865,-0.6866481285123016,-9.3906,-2.5469,-0.3867,0.002,-0.0059,0.0059,23.1875,-23.0625,-16.4375,0.0312,0.0195,0.0156
0.501011,0.09670474493059897,0.6623613806023699,0.28361936006729865,-0.6866481285123016,-9.3594,-2.4883,-0.3867,0.002,-0.0059,0.0059,23.1875,-23.0625,-16.4375,0.0312,0.0195,0.0156
0.514344,0.09670474493059897,0.6623613806023699,0.28361936006729865,-0.6866481285123016,-9.3828,-2.5,-0.375,0.002,-0.0059,0.0059,23.1875,-23.0625,-16.4375,0.0312,0.0195,0.0156
0.542757,0.09670474493059897,0.6623613806023699,0.28361936006729865,-0.6866481285123016,-9.3906,-2.4883,-0.4023,0.002,-0.0059,0.0059,23.1875,-23.0625,-16.4375,-0.0156,0.0547,0.0234
0.554443,0.09670474493059897,0.6623613806023699,0.28361936006729865,-0.6866481285123016,-9.3828,-2.5,-0.3867,0.002,-0.0059,0.0059,23.1875,-23.0625,-16.4375,-0.0156,0.0547,0.0234
0.567765,0.09670474493059897,0.6623613806023699,0.28361936006729865,-0.6866481285123016,-9.3633,-2.5391,-0.375,0.002,-0.0059,0.0059,23.1875,-23.0625,-16.4375,-0.0156,0.0547,0.0234
0.570159,0.09670474493059897,0.6623613806023699,0.28361936006729865,-0.6866481285123016,-9.3516,-2.5469,-0.4023,0.002,-0.0059,0.0059,24.3125,-20.5625,-17.25,-0.0156,0.0547,0.0234
0.578405,0.09670474493059897,0.6623613806023699,0.28361936006729865,-0.6866481285123016,-9.3711,-2.5078,-0.4219,0.002,-0.0059,0.0059,24.3125,-20.5625,-17.25,-0.0156,0.0547,0.0234
0.581712,0.09670474493059897,0.6623613806023699,0.28361936006729865,-0.6866481285123016,-9.3867,-2.5469,-0.4023,0.002,-0.0059,0.0059,24.3125,-20.5625,-17.25,0.0039,0.0508,-0.0078
0.601393,0.09670474493059897,0.6623613806023699,0.28361936006729865,-0.6866481285123016,-9.4023,-2.5586,-0.4414,0.002,-0.0059,0.0059,22.8125,-22.0,-16.0,-0.0273,-0.0273,-0.0352
0.613385,0.09670474493059897,0.6623613806023699,0.28361936006729865,-0.6866481285123016,-9.4258,-2.6055,-0.4531,0.002,-0.0059,0.0059,22.8125,-22.0,-16.0,-0.0273,-0.0273,-0.0352
0.617283,0.09670474493059897,0.6623613806023699,0.28361936006729865,-0.6866481285123016,-9.4297,-2.6641,-0.4023,0.002,-0.0059,0.0059,22.8125,-22.6875,-16.0,-0.0273,-0.0273,-0.0352
0.632690,0.09670474493059897,0.6623613806023699,0.28361936006729865,-0.6866481285123016,-9.4297,-2.6641,-0.4023,0.002,-0.0059,0.0059,22.875,-21.625,-16.4375,-0.0547,-0.1328,0.0117
0.637067,0.09670474493059897,0.6623613806023699,0.28361936006729865,-0.6866481285123016,-9.3906,-2.6797,-0.4219,0.002,-0.0059,0.0059,22.875,-21.625,-16.4375,-0.0742,-0.1406,0.0273
0.661676,0.09670474493059897,0.6623613806023699,0.28361936006729865,-0.6866481285123016,-9.3906,-2.6797,-0.4219,0.002,-0.0059,0.0059,22.8125,-22.0,-16.875,-0.0742,-0.1406,0.0273
0.667721,0.09670474493059897,0.6623613806023699,0.28361936006729865,-0.6866481285123016,-9.3398,-2.6797,-0.4531,0.002,-0.0059,0.0059,22.8125,-22.0,-16.875,-0.0742,-0.1406,0.0273
0.670021,0.09670474493059897,0.6623613806023699,0.28361936006729865,-0.6866481285123016,-9.3672,-2.6641,-0.5,0.002,-0.0059,0.0059,22.8125,-22.0,-16.875,-0.0742,-0.1406,0.0273
0.698691,0.09670474493059897,0.6623613806023699,0.28361936006729865,-0.6866481285123016,-9.3828,-2.6055,-0.4805,0.002,-0.0059,0.0059,22.8125,-22.0,-16.875,-0.0742,-0.1406,0.0273
0.701021,0.09670474493059897,0.6623613806023699,0.28361936006729865,-0.6866481285123016,-9.4297,-2.4805,-0.4023,0.002,-0.0059,0.0059,22.8125,-22.0,-16.875,-0.0742,-0.1406,0.0273
0.706342,0.09670474493059897,0.6623613806023699,0.28361936006729865,-0.6866481285123016,-9.4258,-2.5,-0.4336,-0.002,0.0059,0.0137,22.8125,-22.0,-16.875,-0.0742,-0.1406,0.0273
0.720369,0.09670474493059897,0.6623613806023699,0.28361936006729865,-0.6866481285123016,-9.3867,-2.5586,-0.4609,-0.0059,-0.002,0.0176,22.8125,-22.0,-16.875,-0.0742,-0.1406,0.0273
0.742182,0.09670474493059897,0.6623613806023699,0.28361936006729865,-0.6866481285123016,-9.4062,-2.6133,-0.4336,-0.0059,-0.002,0.0176,23.25,-21.625,-15.9375,-0.0742,-0.1406,0.0273
0.745297,0.09670474493059897,0.6623613806023699,0.28361936006729865,-0.6866481285123016,-9.4102,-2.6055,-0.4727,-0.0059,-0.002,0.0176,23.25,-21.625,-15.9375,-0.0273,-0.0664,-0.0508
0.747537,0.09670474493059897,0.6623613806023699,0.28361936006729865,-0.6866481285123016,-9.4062,-2.6328,-0.4805,-0.0059,-0.002,0.0176,22.1875,-22.0,-15.5625,-0.0273,-0.0664,-0.0508
0.760759,0.09670474493059897,0.6623613806023699,0.28361936006729865,-0.6866481285123016,-9.4062,-2.6328,-0.4805,-0.0059,-0.002,0.0176,24.0,-20.5625,-16.4375,-0.0273,-0.0664,-0.0508
0.779650,0.09670474493059897,0.6623613806023699,0.28361936006729865,-0.6866481285123016,-9.3984,-2.5391,-0.4023,-0.0059,-0.002,0.0176,23.1875,-21.6875,-15.9375,-0.0273,-0.0664,-0.0508
0.784604,0.09670474493059897,0.6623613806023699,0.28361936006729865,-0.6866481285123016,-9.3828,-2.5,-0.3945,-0.0059,-0.002,0.0176,23.1875,-21.6875,-15.9375,-0.0273,-0.0664,-0.0508
0.795329,0.09670474493059897,0.6623613806023699,0.28361936006729865,-0.6866481285123016,-9.3711,-2.4883,-0.4219,-0.0059,-0.002,0.0176,22.5,-21.3125,-16.875,-0.0273,-0.0664,-0.0508
0.805256,0.09670474493059897,0.6623613806023699,0.28361936006729865,-0.6866481285123016,-9.3867,-2.4883,-0.4141,0.0137,0.0078,0.0039,22.5,-21.3125,-16.875,-0.0273,-0.0664,-0.0508
0.839944,0.09670474493059897,0.6623613806023699,0.28361936006729865,-0.6866481285123016,-9.3633,-2.5,-0.3945,0.0137,0.0078,0.0039,22.5,-21.3125,-16.875,-0.0273,-0.0664,-0.0508
0.845285,0.09670474493059897,0.6623613806023699,0.28361936006729865,-0.6866481285123016,-9.3906,-2.4727,-0.3945,0.0117,0.0059,-0.002,22.5,-21.3125,-16.875,-0.0273,-0.0664,-0.0508
0.847283,0.09670474493059897,0.6623613806023699,0.28361936006729865,-0.6866481285123016,-9.3633,-2.4727,-0.4414,0.0117,0.0059,-0.002,22.5,-21.3125,-16.875,0.0,0.0664,0.0352
0.862797,0.09670474493059897,0.6623613806023699,0.28361936006729865,-0.6866481285123016,-9.3633,-2.4727,-0.4414,0.0117,0.0059,-0.002,22.5,-21.0,-16.875,0.0273,0.0664,-0.0117
0.881093,0.09670474493059897,0.6623613806023699,0.28361936006729865,-0.6866481285123016,-9.2695,-2.4609,-0.4336,0.0117,0.0059,-0.002,22.5,-21.0,-16.875,0.0273,0.0664,-0.0117
0.894332,0.09670474493059897,0.6623613806023699,0.28361936006729865,-0.6866481285123016,-9.2695,-2.4609,-0.4336,0.0117,0.0059,-0.002,22.5,-21.0,-16.875,0.0273,0.0664,-0.0117
0.903379,0.09670474493059897,0.6623613806023699,0.28361936006729865,-0.6866481285123016,-9.2969,-2.4414,-0.4727,0.0117,0.0059,-0.002,22.5,-21.0,-16.875,0.0273,0.0664,-0.0117
0.908673,0.09670474493059897,0.6623613806023699,0.28361936006729865,-0.6866481285123016,-9.3164,-2.4609,-0.4219,0.0117,0.0059,-0.002,22.5,-21.0,-16.875,0.0273,0.0664,-0.0117
0.945449,0.09670474493059897,0.6623613806023699,0.28361936006729865,-0.6866481285123016,-9.3828,-2.5469,-0.4141,0.0117,0.0059,-0.002,22.5,-21.0,-16.875,0.0391,0.043,-0.043
0.951936,0.09670474493059897,0.6623613806023699,0.28361936006729865,-0.6866481285123016,-9.3555,-2.5664,-0.4219,0.0117,0.0059,-0.002,22.5,-21.0,-16.875,0.0,-0.0156,0.0234
0.969647,0.09670474493059897,0.6623613806023699,0.28361936006729865,-0.6866481285123016,-9.3359,-2.5742,-0.3867,0.0117,0.0059,-0.002,22.5,-21.0,-16.875,0.0,-0.0156,0.0234
0.981144,0.09670474493059897,0.6623613806023699,0.28361936006729865,-0.6866481285123016,-9.3242,-2.5273,-0.3945,0.0117,0.0059,-0.002,22.5,-21.0,-16.875,0.0391,-0.043,0.0508
0.986398,0.09670474493059897,0.6623613806023699,0.28361936006729865,-0.6866481285123016,-9.2852,-2.5273,-0.4023,0.0117,0.0059,-0.002,23.25,-19.5,-16.375,0.0898,0.0039,0.043
0.991595,0.09670474493059897,0.6623613806023699,0.28361936006729865,-0.6866481285123016,-9.3164,-2.4727,-0.4336,0.0117,0.0059,-0.002,22.8125,-22.3125,-14.75,0.0898,0.0039,0.043
0.993870,0.09670474493059897,0.6623613806023699,0.28361936006729865,-0.6866481285123016,-9.3906,-2.4609,-0.4414,0.0117,0.0059,-0.002,22.8125,-22.3125,-14.75,-0.0234,0.0703,0.0312
0.996174,0.09670474493059897,0.6623613806023699,0.28361936006729865,-0.6866481285123016,-9.4023,-2.5469,-0.4922,0.0117,0.0059,-0.002,23.625,-20.5625,-15.9375,-0.0234,0.0703,0.0312
0.999129,0.09670474493059897,0.6623613806023699,0.28361936006729865,-0.6866481285123016,-9.3906,-2.5664,-0.4414,0.0117,0.0059,-0.002,23.625,-20.5625,-15.9375,-0.043,-0.0156,-0.0469
1.007253,0.09670474493059897,0.6623613806023699,0.28361936006729865,-0.6866481285123016,-9.4102,-2.4883,-0.4141,0.0117,0.0059,-0.002,23.625,-20.5625,-15.9375,-0.043,-0.0156,-0.0469
1.042089,0.09670474493059897,0.6623613806023699,0.28361936006729865,-0.6866481285123016,-9.457,-2.4883,-0.4727,0.0117,0.0059,-0.002,23.25,-21.3125,-16.4375,-0.0977,0.043,-0.0273
1.050334,0.09670474493059897,0.6623613806023699,0.28361936006729865,-0.6866481285123016,-9.4531,-2.5391,-0.5391,0.0117,0.0059,-0.002,23.25,-21.3125,-16.4375,-0.0977,0.043,-0.0273
1.086968,0.09670474493059897,0.6623613806023699,0.28361936006729865,-0.6866481285123016,-9.4688,-2.5273,-0.5078,0.0117,0.0059,-0.002,22.5,-21.625,-16.0,-0.0977,0.043,-0.0273
1.092797,0.09670474493059897,0.6623613806023699,0.28361936006729865,-0.6866481285123016,-9.4258,-2.5469,-0.4805,0.0117,0.0059,-0.002,23.1875,-22.0,-16.875,-0.0469,-0.0234,-0.0273
1.109269,0.09670474493059897,0.6623613806023699,0.28361936006729865,-0.6866481285123016,-9.3945,-2.5,-0.4609,0.0117,0.0059,-0.002,23.9375,-22.6875,-16.4375,-0.0469,-0.0234,-0.0273
1.118178,0.09670474493059897,0.6623613806023699,0.28361936006729865,-0.6866481285123016,-9.4102,-2.4531,-0.4336,0.0117,0.0059,-0.002,23.9375,-22.6875,-16.4375,-0.0469,-0.0234,-0.0273
1.124391,0.09670474493059897,0.6623613806023699,0.28361936006729865,-0.6866481285123016,-9.4219,-2.4531,-0.4219,0.0117,0.0059,-0.002,23.9375,-22.6875,-16.4375,-0.0469,-0.0234,-0.0273
1.146455,0.09670474493059897,0.6623613806023699,0.28361936006729865,-0.6866481285123016,-9.4336,-2.4336,-0.4219,0.002,0.0176,0.0078,23.9375,-22.6875,-16.4375,-0.0469,-0.0234,-0.0273
1.148924,0.09670474493059897,0.6623613806023699,0.28361936006729865,-0.6866481285123016,-9.4453,-2.4336,-0.4141,0.002,0.0176,0.0078,23.9375,-21.625,-15.5625,-0.0469,-0.0234,-0.0273
1.172786,0.09670474493059897,0.6623613806023699,0.28361936006729865,-0.6866481285123016,-9.4336,-2.4219,-0.4141,0.002,0.0176,0.0078,22.4375,-22.375,-16.875,-0.0469,-0.0234,-0.0273
1.178071,0.09670474493059897,0.6623613806023699,0.28361936006729865,-0.6866481285123016,-9.3984,-2.4219,-0.4141,0.002,0.0176,0.0078,23.9375,-21.625,-17.25,-0.0469,-0.0234,-0.0273
1.180426,0.09670474493059897,0.6623613806023699,0.28361936006729865,-0.6866481285123016,-9.4062,-2.4609,-0.4336,0.002,0.0176,0.0078,23.1875,-21.3125,-17.3125,-0.0469,-0.0234,-0.0273
1.183095,0.09670474493059897,0.6623613806023699,0.28361936006729865,-0.6866481285123016,-9.3828,-2.5195,-0.4141,0.002,0.0176,0.0078,24.0,-20.1875,-16.4375,-0.0469,-0.0234,-0.0273
1.191934,0.09670474493059897,0.6623613806023699,0.28361936006729865,-0.6866481285123016,-9.3984,-2.5469,-0.4727,0.002,0.0176,0.0078,23.25,-20.1875,-15.0625,-0.0469,-0.0234,-0.0273
1.194297,0.09802410019459638,0.6628282321977528,0.2846358133093613,-0.6855891365565532,-9.3984,-2.5469,-0.4727,-0.041,0.0098,0.0059,23.1875,-21.625,-16.875,-0.0469,-0.0234,-0.0273
1.200801,0.09894741404943701,0.6631534078879149,0.28534663786495795,-0.6848461601839777,-9.3945,-2.5586,-0.4609,-0.041,0.0098,0.0059,22.5625,-19.1875,-16.4375,-0.0469,-0.0234,-0.0273
1.206048,0.09959361786293304,0.6633802365629927,0.2858438749905709,-0.6843252531866516,-9.3945,-2.5,-0.4727,-0.041,0.0098,0.0059,23.625,-20.9375,-15.5625,-0.0469,-0.0234,-0.0273
1.216999,0.1000459036857709,0.6635386273981114,0.28619177429753634,-0.6839602148010919,-9.3828,-2.4414,-0.4727,-0.041,0.0098,0.0059,23.625,-20.9375,-15.5625,-0.0469,-0.0234,-0.0273
1.227652,0.10036247603760884,0.6636493103001959,0.286435222238627,-0.6837044901145399,-9.3594,-2.4531,-0.5078,-0.0371,-0.0039,0.0078,23.625,-20.9375,-15.5625,-0.0469,-0.0234,-0.0273
1.234019,0.10058406325049757,0.6637266949492884,0.2866055959423952,-0.6835253857803809,-9.3477,-2.5,-0.5391,-0.0371,-0.0039,0.0078,23.25,-20.9375,-15.5625,-0.0469,-0.0234,-0.0273
1.272994,0.10073916784372489,0.663780818490073,0.28672483810326177,-0.683399965087401,-9.3359,-2.5195,-0.5195,-0.0371,-0.0039,0.0078,23.1875,-22.3125,-15.5625,-0.0469,-0.0234,-0.0273
1.275554,0.10084773799129969,0.6638186826021426,0.2868082981677708,-0.6833121471717747,-9.3359,-2.4805,-0.4531,-0.0371,-0.0039,0.0078,23.1875,-22.3125,-15.5625,-0.0469,-0.0234,-0.0273
1.288570,0.10143395159669052,0.6639365796856269,0.2872573238261839,-0.6829221050215394,-9.3477,-2.4883,-0.4414,-0.0371,-0.0039,0.0078,23.1875,-22.3125,-15.5625,-0.0469,-0.0234,-0.0273
1.293917,0.10184426018144126,0.6640188270477492,0.28757152173649336,-0.6826487851599705,-9.3398,-2.4609,-0.4922,-0.0371,-0.0039,0.0078,22.875,-19.875,-15.5625,0.0547,0.0312,-0.0156
1.296277,0.10213145640369836,0.66407626276188,0.2877914016574022,-0.6824573187981368,-9.3359,-2.4531,-0.4414,-0.0371,-0.0039,0.0078,22.875,-19.875,-15.5625,0.0547,0.0312,-0.0156
1.309744,0.10248333538458451,0.6641219113621437,0.2880076792236611,-0.6822688835974746,-9.3438,-2.4531,-0.4727,-0.0371,-0.0039,0.0078,22.875,-19.875,-15.5625,0.0547,0.0312,-0.0156
1.316678,0.10272964110852692,0.6641537835218009,0.2881590397688232,-0.6821368927648614,-9.3164,-2.4609,-0.5078,-0.0371,-0.0039,0.0078,22.8125,-23.0625,-16.0,0.0547,0.0312,-0.0156
1.353328,0.10299231455150912,0.6641777458523654,0.2882957107513502,-0.6820161935175495,-9.3086,-2.5,-0.5078,-0.0371,-0.0039,0.0078,22.8125,-23.0625,-16.0,0.0547,0.0312,-0.0156
1.356381,0.10317618244484296,0.6641944791043526,0.2883913642502423,-0.681931661040379,-9.3242,-2.5273,-0.4922,-0.0371,-0.0039,0.0078,23.1875,-21.9375,-15.9375,0.0547,0.0312,-0.0156
1.358905,0.10330488882213988,0.6642061726462876,0.2884583140658196,-0.6818724669689487,-9.3633,-2.5469,-0.5078,-0.0371,-0.0039,0.0078,22.875,-19.875,-15.9375,0.0547,0.0312,-0.0156
1.365905,0.1033949831288912,0.6642143484921357,0.28850517540684567,-0.6818310204767816,-9.4023,-2.5586,-0.4922,-0.0371,-0.0039,0.0078,22.875,-19.875,-15.9375,0.0195,-0.0703,-0.0234
1.372931,0.10369707819730517,0.6642438233042058,0.28862526498101526,-0.681705593045995,-9.4414,-2.5195,-0.4609,-0.0371,-0.0039,0.0078,22.875,-19.875,-15.9375,0.0195,-0.0703,-0.0234
1.387011,0.10369707819730517,0.6642438233042058,0.28862526498101526,-0.681705593045995,-9.4062,-2.5195,-0.4531,-0.0137,0.002,0.0117,22.5,-20.625,-15.9375,0.0195,-0.0703,-0.0234
1.408770,0.10369707819730517,0.6642438233042058,0.28862526498101526,-0.681705593045995,-9.4023,-2.5195,-0.4805,-0.0137,0.002,0.0117,22.5,-20.625,-15.9375,-0.0195,-0.0508,0.0117
1.420587,0.10369707819730517,0.6642438233042058,0.28862526498101526,-0.681705593045995,-9.3633,-2.4531,-0.5,-0.0137,0.002,0.0117,23.9375,-21.9375,-15.9375,-0.0195,-0.0508,0.0117
1.453756,0.10369707819730517,0.6642438233042058,0.28862526498101526,-0.681705593045995,-9.3633,-2.4531,-0.5,-0.0137,0.002,0.0117,22.125,-23.8125,-16.0,-0.0195,-0.0508,0.0117
1.476617,0.10369707819730517,0.6642438233042058,0.28862526498101526,-0.681705593045995,-9.4414,-2.3555,-0.4727,-0.0137,0.002,0.0117,22.125,-23.8125,-16.0,-0.0195,-0.0508,0.0117
1.478815,0.10369707819730517,0.6642438233042058,0.28862526498101526,-0.681705593045995,-9.4492,-2.4219,-0.4727,-0.0293,0.0098,0.0195,22.125,-23.8125,-16.0,-0.0195,-0.0508,0.0117
1.481274,0.10369707819730517,0.6642438233042058,0.28862526498101526,-0.681705593045995,-9.4023,-2.5,-0.5078,-0.0293,0.0098,0.0195,22.1875,-20.25,-15.9375,-0.0195,-0.0508,0.0117
1.496001,0.10369707819730517,0.6642438233042058,0.28862526498101526,-0.681705593045995,-9.4023,-2.5,-0.5078,-0.0293,0.0098,0.0195,22.1875,-20.25,-15.9375,-0.0117,-0.0391,-0.0156
1.505793,0.10369707819730517,0.6642438233042058,0.28862526498101526,-0.681705593045995,-9.4023,-2.5469,-0.4922,-0.0293,0.0098,0.0195,22.1875,-20.25,-15.9375,-0.0117,-0.0391,-0.0156
1.512282,0.10369707819730517,0.6642438233042058,0.28862526498101526,-0.681705593045995,-9.3906,-2.5391,-0.5078,-0.0293,0.0098,0.0195,22.1875,-20.25,-15.9375,-0.0117,-0.0391,-0.0156
1.527949,0.10369707819730517,0.6642438233042058,0.28862526498101526,-0.681705593045995,-9.4297,-2.5391,-0.4805,-0.0293,0.0098,0.0195,22.1875,-20.25,-15.9375,-0.0391,-0.0859,0.0195
1.533039,0.10369707819730517,0.6642438233042058,0.28862526498101526,-0.681705593045995,-9.4258,-2.4805,-0.5391,-0.0293,0.0098,0.0195,22.1875,-20.25,-15.9375,-0.0391,-0.0859,0.0195
1.538170,0.10369707819730517,0.6642438233042058,0.28862526498101526,-0.681705593045995,-9.4258,-2.4805,-0.5391,-0.0293,0.0098,0.0195,22.1875,-20.25,-15.9375,-0.0391,-0.0859,0.0195
1.540992,0.10369707819730517,0.6642438233042058,0.28862526498101526,-0.681705593045995,-9.4258,-2.5078,-0.5664,-0.0293,0.0098,0.0195,22.1875,-20.25,-15.9375,-0.0391,-0.0859,0.0195
1.560007,0.10369707819730517,0.6642438233042058,0.28862526498101526,-0.681705593045995,-9.4492,-2.5078,-0.5586,-0.0293,0.0098,0.0195,22.1875,-20.25,-15.9375,-0.0391,-0.0859,0.0195
1.565965,0.10369707819730517,0.6642438233042058,0.28862526498101526,-0.681705593045995,-9.4492,-2.5,-0.5078,-0.0293,0.0098,0.0195,22.875,-21.3125,-16.875,-0.0391,-0.0859,0.0195
1.583116,0.10369707819730517,0.6642438233042058,0.28862526498101526,-0.681705593045995,-9.4492,-2.4883,-0.5195,-0.0293,0.0098,0.0195,23.25,-20.25,-16.875,-0.0391,-0.0859,0.0195
1.588651,0.10369707819730517,0.6642438233042058,0.28862526498101526,-0.681705593045995,-9.4922,-2.4609,-0.5195,-0.0293,0.0098,0.0195,22.8125,-23.4375,-16.0,-0.0391,-0.0859,0.0195
1.593741,0.10369707819730517,0.6642438233042058,0.28862526498101526,-0.681705593045995,-9.4531,-2.4531,-0.5273,-0.0293,0.0098,0.0195,22.8125,-23.4375,-16.0,-0.0391,-0.0859,0.0195
1.605748,0.10369707819730517,0.6642438233042058,0.28862526498101526,-0.681705593045995,-9.3984,-2.4531,-0.4805,-0.0293,0.0098,0.0195,22.875,-20.5625,-15.5625,-0.0391,-0.0859,0.0195
1.617663,0.10369707819730517,0.6642438233042058,0.28862526498101526,-0.681705593045995,-9.3633,-2.4414,-0.5,-0.0293,0.0098,0.0195,22.875,-20.5625,-15.5625,-0.0391,-0.0859,0.0195
1.632245,0.10369707819730517,0.6642438233042058,0.28862526498101526,-0.681705593045995,-9.3359,-2.4023,-0.5,-0.0293,0.0098,0.0195,22.875,-20.5625,-15.5625,-0.0391,-0.0859,0.0195
1.659468,0.10369707819730517,0.6642438233042058,0.28862526498101526,-0.681705593045995,-9.3438,-2.3477,-0.4727,-0.0293,0.0098,0.0195,22.875,-20.5625,-15.5625,-0.0391,-0.0859,0.0195
1.681595,0.10369707819730517,0.6642438233042058,0.28862526498101526,-0.681705593045995,-9.3828,-2.3281,-0.4922,-0.0293,0.0098,0.0195,23.25,-20.25,-16.4375,-0.0391,-0.0859,0.0195
1.692510,0.10369707819730517,0.6642438233042058,0.28862526498101526,-0.681705593045995,-9.3516,-2.3828,-0.5195,-0.0293,0.0098,0.0195,23.25,-20.25,-16.4375,-0.0391,-0.0859,0.0195
1.695675,0.10369707819730517,0.6642438233042058,0.28862526498101526,-0.681705593045995,-9.3711,-2.4414,-0.5273,-0.0293,0.0098,0.0195,22.1875,-21.3125,-16.875,0.0352,-0.0039,0.0039
1.698127,0.10369707819730517,0.6642438233042058,0.28862526498101526,-0.681705593045995,-9.3203,-2.4336,-0.5195,-0.0293,0.0098,0.0195,22.1875,-21.3125,-16.875,0.0352,-0.0039,0.0039
1.732182,0.10369707819730517,0.6642438233042058,0.28862526498101526,-0.681705593045995,-9.3359,-2.375,-0.5859,-0.0293,0.0098,0.0195,22.5,-19.5625,-17.25,0.0352,-0.0039,0.0039
1.738995,0.10369707819730517,0.6642438233042058,0.28862526498101526,-0.681705593045995,-9.3516,-2.3555,-0.5586,-0.0293,0.0098,0.0195,23.1875,-22.0,-16.875,0.043,0.082,-0.0352
1.760497,0.10369707819730517,0.6642438233042058,0.28862526498101526,-0.681705593045995,-9.3867,-2.375,-0.5977,-0.0293,0.0098,0.0195,23.1875,-22.0,-16.875,0.043,0.082,-0.0352
1.771611,0.10369707819730517,0.6642438233042058,0.28862526498101526,-0.681705593045995,-9.3867,-2.375,-0.5977,-0.0293,0.0098,0.0195,23.1875,-22.0,-16.875,0.043,0.082,-0.0352
1.787207,0.10369707819730517,0.6642438233042058,0.28862526498101526,-0.681705593045995,-9.4727,-2.3477,-0.6523,-0.0293,0.0098,0.0195,23.1875,-22.0,-16.875,0.043,0.082,-0.0352
1.793601,0.10369707819730517,0.6642438233042058,0.28862526498101526,-0.681705593045995,-9.4922,-2.3359,-0.6719,-0.0293,0.0098,0.0195,22.875,-21.3125,-16.4375,0.043,0.082,-0.0352
1.804147,0.10369707819730517,0.6642438233042058,0.28862526498101526,-0.681705593045995,-9.4922,-2.3359,-0.6719,-0.0293,0.0098,0.0195,22.9375,-19.125,-15.9375,-0.1094,0.0195,-0.0664
1.809329,0.10369707819730517,0.6642438233042058,0.28862526498101526,-0.681705593045995,-9.5156,-2.4023,-0.6133,-0.0293,0.0098,0.0195,23.25,-21.3125,-16.4375,-0.1094,0.0195,-0.0664
1.821931,0.10369707819730517,0.6642438233042058,0.28862526498101526,-0.681705593045995,-9.5547,-2.3281,-0.5781,-0.0293,0.0098,0.0195,23.25,-21.3125,-16.4375,-0.1094,0.0195,-0.0664
1.825403,0.10369707819730517,0.6642438233042058,0.28862526498101526,-0.681705593045995,-9.5234,-2.3555,-0.5859,-0.0293,0.0098,0.0195,23.25,-21.3125,-16.4375,-0.1484,0.0781,-0.0234
1.864449,0.10369707819730517,0.6642438233042058,0.28862526498101526,-0.681705593045995,-9.4766,-2.4023,-0.5859,-0.0293,0.0098,0.0195,23.25,-21.3125,-16.4375,-0.1484,0.0781,-0.0234
1.867878,0.10369707819730517,0.6642438233042058,0.28862526498101526,-0.681705593045995,-9.457,-2.4609,-0.5273,-0.0293,0.0098,0.0195,23.25,-21.3125,-16.4375,-0.1484,0.0781,-0.0234
1.872779,0.10369707819730517,0.6642438233042058,0.28862526498101526,-0.681705593045995,-9.3945,-2.5078,-0.5859,-0.0293,0.0098,0.0195,23.25,-21.3125,-16.4375,0.0312,-0.1172,-0.0156
1.893303,0.10369707819730517,0.6642438233042058,0.28862526498101526,-0.681705593045995,-9.3594,-2.5586,-0.6328,-0.0293,0.0098,0.0195,23.25,-21.3125,-16.4375,0.0312,-0.1172,-0.0156
1.896956,0.10369707819730517,0.6642438233042058,0.28862526498101526,-0.681705593045995,-9.3867,-2.5273,-0.625,-0.0293,0.0098,0.0195,23.25,-21.3125,-16.4375,0.0312,-0.1172,-0.0156
1.899387,0.10369707819730517,0.6642438233042058,0.28862526498101526,-0.681705593045995,-9.3945,-2.375,-0.5977,-0.0293,0.0098,0.0195,24.0,-20.5625,-17.25,0.0312,-0.1172,-0.0156
1.908940,0.10369707819730517,0.6642438233042058,0.28862526498101526,-0.681705593045995,-9.3945,-2.375,-0.5977,-0.0293,0.0098,0.0195,24.0,-20.5625,-17.25,0.0391,0.0234,-0.0195
1.919645,0.10369707819730517,0.6642438233042058,0.28862526498101526,-0.681705593045995,-9.3555,-2.3086,-0.6445,-0.0293,0.0098,0.0195,24.0,-20.5625,-17.25,0.0391,0.0234,-0.0195
1.930035,0.10369707819730517,0.6642438233042058,0.28862526498101526,-0.681705593045995,-9.3125,-2.3164,-0.6055,-0.0293,0.0098,0.0195,24.0,-20.5625,-17.25,0.0391,0.0234,-0.0195
1.940470,0.10369707819730517,0.6642438233042058,0.28862526498101526,-0.681705593045995,-9.3164,-2.3477,-0.5586,-0.0293,0.0098,0.0195,24.0,-20.5625,-17.25,0.1055,0.043,0.0195
1.963782,0.10369707819730517,0.6642438233042058,0.28862526498101526,-0.681705593045995,-9.3516,-2.3555,-0.5586,-0.0293,0.0098,0.0195,22.5625,-19.875,-15.0625,0.1055,0.043,0.0195
1.966383,0.10369707819730517,0.6642438233042058,0.28862526498101526,-0.681705593045995,-9.3438,-2.3281,-0.4531,-0.0293,0.0098,0.0195,22.5625,-19.875,-15.0625,0.1055,0.043,0.0195
1.999146,0.10369707819730517,0.6642438233042058,0.28862526498101526,-0.681705593045995,-9.3203,-2.2969,-0.5078,-0.0293,0.0098,0.0195,23.5625,-21.3125,-16.4375,0.1055,0.043,0.0195
2.011099,0.10369707819730517,0.6642438233042058,0.28862526498101526,-0.681705593045995,-9.3203,-2.2969,-0.5078,-0.0293,0.0098,0.0195,23.5625,-21.3125,-16.4375,0.0898,0.0859,0.0625
2.020012,0.10369707819730517,0.6642438233042058,0.28862526498101526,-0.681705593045995,-9.2227,-2.2695,-0.5078,-0.0293,0.0098,0.0195,23.5625,-21.3125,-16.4375,0.0898,0.0859,0.0625
2.025309,0.10369707819730517,0.6642438233042058,0.28862526498101526,-0.681705593045995,-9.2227,-2.2695,-0.5078,-0.0293,0.0098,0.0195,23.25,-20.25,-17.25,0.0898,0.0859,0.0625
2.030568,0.10369707819730517,0.6642438233042058,0.28862526498101526,-0.681705593045995,-9.2227,-2.2969,-0.4805,-0.0293,0.0098,0.0195,23.25,-20.25,-17.25,0.0898,0.0859,0.0625
2.032893,0.10369707819730517,0.6642438233042058,0.28862526498101526,-0.681705593045995,-9.2578,-2.3672,-0.4609,-0.0293,0.0098,0.0195,23.25,-20.9375,-16.875,0.0898,0.0859,0.0625
2.043304,0.10369707819730517,0.6642438233042058,0.28862526498101526,-0.681705593045995,-9.3398,-2.3672,-0.4414,-0.0293,0.0098,0.0195,23.1875,-23.375,-16.0,0.0898,0.0859,0.0625
2.073243,0.10369707819730517,0.6642438233042058,0.28862526498101526,-0.681705593045995,-9.4492,-2.2617,-0.4414,-0.0293,0.0098,0.0195,23.1875,-23.375,-16.0,0.0352,0.0391,0.1289
2.075312,0.10369707819730517,0.6642438233042058,0.28862526498101526,-0.681705593045995,-9.4883,-2.2109,-0.4727,-0.0293,0.0098,0.0195,23.1875,-23.375,-16.0,0.0352,0.0391,0.1289
2.103880,0.10369707819730517,0.6642438233042058,0.28862526498101526,-0.681705593045995,-9.4492,-2.1836,-0.4609,-0.0293,0.0098,0.0195,23.1875,-23.375,-16.0,0.0352,0.0391,0.1289
2.110399,0.10369707819730517,0.6642438233042058,0.28862526498101526,-0.681705593045995,-9.3672,-2.1562,-0.4336,-0.0293,0.0098,0.0195,23.1875,-23.375,-16.0,0.0352,0.0391,0.1289
2.115879,0.10657873344731024,0.6644155308131572,0.28978980281328454,-0.6805988878748447,-9.3633,-2.2422,-0.4609,-0.0703,-0.0195,-0.002,23.1875,-23.375,-16.0,0.0352,0.0391,0.1289
2.117989,0.10859520163327752,0.6645314114187317,0.290603098048348,-0.6798197737818151,-9.3906,-2.3086,-0.4805,-0.0703,-0.0195,-0.002,21.8125,-21.625,-16.875,0.0352,0.0391,0.1289
2.125512,0.11000638046077034,0.6646104130633748,0.2911714786437209,-0.679272231973367,-9.5508,-2.1445,-0.3945,-0.0703,-0.0195,-0.002,21.8125,-21.625,-16.875,-0.0742,0.0938,0.1172
2.140727,0.11144590999862312,0.6644958970585911,0.2919638171649972,-0.6788093557128696,-9.6602,-2.0859,-0.3477,-0.0703,-0.0195,-0.002,21.8125,-21.625,-16.875,-0.0742,0.0938,0.1172
2.149149,0.11284415680293972,0.6643290188034512,0.2927599121416161,-0.6783986916953118,-9.7852,-2.0508,-0.2109,-0.0703,-0.0195,-0.002,21.8125,-21.625,-16.875,-0.0742,0.0938,0.1172
2.172310,0.11406249340733443,0.6641495342239709,0.2934360125688927,-0.6780784986382129,-10.0039,-2.0586,-0.0586,-0.0703,-0.0195,-0.002,21.8125,-21.625,-16.875,-0.0742,0.0938,0.1172
2.180650,0.11524497479560171,0.6639317566486962,0.29405834575416584,-0.677822179918938,-10.0195,-1.9922,0.0469,-0.0703,-0.0195,-0.002,22.4375,-22.375,-16.0,-0.0742,0.0938,0.1172
2.192227,0.11607258946632032,0.6637785608257016,0.29449365093129654,-0.6776419893453319,-10.0195,-1.8594,0.1406,-0.0703,-0.0195,-0.002,23.25,-19.5,-16.875,-0.0742,0.0938,0.1172
2.213803,0.11665186068543906,0.6636709553318088,0.29479820426731523,-0.6775154796817232,-10.0352,-1.8477,0.1133,-0.0703,-0.0195,-0.002,22.875,-20.625,-17.75,-0.0742,0.0938,0.1172
2.216606,0.11705732242914438,0.6635954508031872,0.2950113134934963,-0.6774267383635489,-10.3398,-1.6094,0.1797,-0.0703,-0.0195,-0.002,22.875,-20.625,-17.75,-0.0742,0.0938,0.1172
2.221949,0.1173411325259029,0.6635425089751478,0.29516045201918206,-0.6773645288648767,-10.4531,-1.5508,0.1016,-0.2617,-0.291,0.1523,22.875,-20.625,-17.75,-0.0742,0.0938,0.1172
2.229723,0.11753979364273798,0.6635054061624556,0.29526483065189824,-0.6773209377272514,-10.4961,-1.5781,0.0547,-0.2617,-0.291,0.1523,22.875,-20.625,-17.75,-1.0,0.6602,0.5
2.238447,0.1176788538529638,0.6634794127974938,0.29533788689127133,-0.6772904020553845,-10.5078,-1.5312,-0.0312,-0.2617,-0.291,0.1523,22.875,-20.625,-17.75,-1.0312,0.6094,0.4141
2.254425,0.12159041555510855,0.66153397762987,0.2959092192943257,-0.6782523875541915,-10.4961,-1.5312,-0.0781,-0.2617,-0.291,0.1523,22.875,-20.625,-17.75,-1.0312,0.6094,0.4141
2.270565,0.12432712175792672,0.6601641258599632,0.29630558351694025,-0.6789175906541425,-10.3438,-1.5781,0.0078,-0.2617,-0.291,0.1523,22.875,-20.625,-17.75,-1.0312,0.6094,0.4141
2.297263,0.1262421265384999,0.6592012911388532,0.2965812883530627,-0.6793792185861619,-10.3789,-1.6836,0.0352,-0.2617,-0.291,0.1523,22.875,-20.625,-17.75,-0.8477,0.4766,0.1797
2.299964,0.13166654750130538,0.6563560924468181,0.29651279853050777,-0.6811319699475551,-10.4219,-1.7812,0.1016,-0.2617,-0.291,0.1523,22.875,-20.625,-17.75,-0.8477,0.4766,0.1797
2.311050,0.13546057352337912,0.6543485399077141,0.2964576917482348,-0.6823424787778264,-10.5859,-1.9258,0.4961,-0.2617,-0.291,0.1523,22.875,-20.625,-17.75,-0.8477,0.4766,0.1797
2.318929,0.13811483511989717,0.6529354829901814,0.2964156072172882,-0.6831817731542523,-10.5977,-1.9453,0.5156,-0.2617,-0.291,0.1523,21.0625,-20.6875,-19.9375,-0.8477,0.4766,0.1797
2.350993,0.14475254601702128,0.6494093984388104,0.29523572937968273,-0.6856748484074497,-10.7383,-1.7891,0.707,-0.2617,-0.291,0.1523,21.0625,-20.6875,-19.9375,-0.8477,0.4766,0.1797
2.357812,0.14939363567940647,0.6469162563396257,0.2943985161656044,-0.6873939282402071,-10.75,-1.668,0.7656,-0.2617,-0.291,0.1523,19.875,-23.1875,-19.9375,-1.1641,0.043,0.4375
2.361174,0.15263969450568518,0.6451589181674853,0.2938069484963254,-0.6885844690271838,-10.7852,-1.3125,0.9062,-0.2617,-0.291,0.1523,18.875,-21.4375,-20.8125,-1.1641,0.043,0.4375
2.372930,0.15987666238398146,0.6406268798999908,0.2906291777936357,-0.6925108913147551,-10.8203,-1.043,1.0117,-0.2617,-0.291,0.1523,18.875,-21.4375,-20.8125,-1.1641,0.043,0.4375
2.379107,0.16493347747508513,0.6374167432479959,0.28838758397907704,-0.6952189905647032,-10.7852,-0.9297,1.0977,-0.2617,-0.291,0.1523,18.875,-21.4375,-20.8125,-1.2109,0.4727,0.3555
2.384798,0.1684686233265817,0.6351512839149768,0.2868101429811171,-0.697094764991643,-10.7852,-0.9297,1.0977,-0.2617,-0.291,0.1523,18.875,-21.4375,-20.8125,-1.1719,0.5234,0.3164
2.417242,0.17094089750337013,0.6335565030832947,0.28570188210809316,-0.6983980251414681,-10.6953,-0.8984,1.2422,-0.2617,-0.291,0.1523,17.0625,-22.875,-20.8125,-1.1719,0.5234,0.3164
2.419711,0.17955019647686993,0.6268446749189145,0.2800361495157444,-0.7045617328774773,-10.6953,-0.8984,1.2422,-0.2617,-0.291,0.1523,16.375,-22.1875,-22.1875,-1.1719,0.5234,0.3164
2.422143,0.18709367781098232,0.620775968952624,0.27508726795430893,-0.709901505212889,-10.7031,-0.8828,1.4258,-0.2617,-0.291,0.1523,16.375,-22.1875,-22.1875,-1.1719,0.5234,0.3164
2.444657,0.1939599581677167,0.6150705019307389,0.2706851167808098,-0.7147009023609848,-10.9336,-0.6328,1.7227,-0.2617,-0.291,0.1523,16.375,-22.1875,-22.1875,-1.1719,0.5234,0.3164
2.461935,0.1987525160833549,0.611031771336757,0.2675837791460758,-0.7180087275970293,-10.9648,-0.3438,1.8164,-0.2617,-0.291,0.1523,13.4375,-22.25,-23.4375,-1.1719,0.5234,0.3164
2.484492,0.20210028848511072,0.6081828544620955,0.26540327744681874,-0.7202986805853939,-10.9805,-0.2695,2.0195,-0.2617,-0.291,0.1523,12.6875,-22.6875,-24.375,-1.1719,0.5234,0.3164
2.500909,0.2044402031794112,0.6061780017996514,0.26387229581303456,-0.7218890807876936,-10.8242,-0.2383,2.0859,-0.2617,-0.291,0.1523,11.6875,-20.9375,-23.875,-1.1719,0.5234,0.3164
2.503899,0.20607638175484938,0.6047694348312479,0.2627983620334606,-0.7229961801346206,-10.6602,-0.1914,2.1914,-0.2617,-0.291,0.1523,11.6875,-20.9375,-23.875,-1.1719,0.5234,0.3164
2.510441,0.2072208289613776,0.6037809172430496,0.2620455171466191,-0.723768111318164,-10.625,-0.1914,2.2305,-0.2617,-0.291,0.1523,11.9375,-23.0625,-24.375,-1.1719,0.5234,0.3164
2.513267,0.20802150485057255,0.6030877259270762,0.2615179956797725,-0.7243069696554393,-10.5234,-0.2695,2.2578,-0.2617,-0.291,0.1523,9.375,-23.8125,-24.8125,-1.1719,0.5234,0.3164
2.518068,0.20858175992191116,0.602601893158953,0.26114847348213455,-0.7246834361202655,-10.2773,-0.6211,2.125,-0.8477,-1.6934,0.666,9.375,-23.8125,-24.8125,-1.1719,0.5234,0.3164
2.520007,0.2089738293047996,0.6022615188184506,0.2608896834710578,-0.7249466012573291,-10.1875,-0.6211,2.1992,-0.8477,-1.6934,0.666,10.25,-20.625,-25.6875,-1.1719,0.5234,0.3164
2.525510,0.20924822288197265,0.6020231153033921,0.2607084704658403,-0.7251306387737985,-10.1172,-0.6992,2.2773,-0.8477,-1.6934,0.666,8.0625,-20.375,-26.5625,-1.1719,0.5234,0.3164
2.533231,0.20944027043441546,0.6018561643979862,0.26058159263019637,-0.7252593771050557,-10.0195,-0.957,2.3242,-0.8477,-1.6934,0.666,8.0625,-20.375,-26.5625,-1.1719,0.5234,0.3164
2.549910,0.20957468933538437,0.6017392658278601,0.26049276452322945,-0.7253494503906172,-9.9609,-0.9688,2.3828,-0.9805,-1.6602,0.582,8.0625,-20.375,-26.5625,-1.1719,0.5234,0.3164
2.558714,0.209668775039467,0.601657421106415,0.26043057848973405,-0.7254124800336219,-9.8984,-0.9688,2.4219,-0.9805,-1.6602,0.582,6.5625,-21.4375,-26.125,-1.1719,0.5234,0.3164
2.565110,0.2097346310117054,0.6016001223873128,0.26038704537066704,-0.7254565899494527,-9.6953,-0.9766,2.4766,-0.9805,-1.6602,0.582,7.0,-19.375,-26.9375,-1.1719,0.5234,0.3164
2.578216,0.20978072798994318,0.6015600098533558,0.26035657092211223,-0.7254874614263978,-9.3945,-1.2539,2.6016,-0.7969,-1.5996,0.5605,7.0,-19.375,-26.9375,-1.1719,0.5234,0.3164
2.585587,0.20981299463320974,0.6015319295400116,0.26033523829557337,-0.7255090686741981,-9.1445,-1.043,2.7578,-0.6992,-1.5781,0.5625,7.0,-19.375,-26.9375,-1.1719,0.5234,0.3164
2.608426,0.20983558056157814,0.6015122726651905,0.2603203052809733,-0.7255241923064757,-9.0898,-0.957,2.832,-0.6992,-1.5781,0.5625,4.0625,-21.5625,-28.8125,-0.1484,-0.5586,-1.1992
2.616416,0.20985139027821104,0.601498512600839,0.2603098521370707,-0.7255347780896907,-8.7891,-0.8984,2.9492,-0.6992,-1.5781,0.5625,4.0625,-21.5625,-28.8125,-0.1484,-0.5586,-1.1992
2.631678,0.20986245681194232,0.601488880480759,0.260302534956625,-0.7255421877286073,-8.5,-0.9102,3.1875,-0.6992,-1.5781,0.5625,4.0625,-21.5625,-28.8125,0.2227,-0.5742,-1.2266
2.643522,0.2491630557023913,0.5648624092685087,0.2516006915366337,-0.7453491277828871,-8.4727,-0.9375,3.332,-0.6992,-1.5781,0.5625,4.0625,-21.5625,-28.8125,0.2227,-0.5742,-1.2266
2.652317,0.27622825066825707,0.5380440420804632,0.2449942019652811,-0.7577495650397078,-8.457,-0.9297,3.5625,-0.2012,-1.248,0.5918,4.0625,-21.5625,-28.8125,0.2227,-0.5742,-1.2266
2.661815,0.29492054991610095,0.5187246730828764,0.2401245481565948,-0.7656936620769685,-8.4258,-0.8828,3.7422,-0.2012,-1.248,0.5918,0.1875,-18.5,-29.625,0.2227,-0.5742,-1.2266
2.687116,0.30786918545078995,0.5049447624768627,0.23659846336885584,-0.7708881362613825,-8.3945,-0.832,3.8867,-0.2012,-1.248,0.5918,0.125,-20.5625,-29.1875,0.1523,-0.707,-0.9648
2.705086,0.3168626127131475,0.4951772631073759,0.23407372497674112,-0.7743429821736616,-8.3945,-0.832,3.8867,-0.1074,-1.0957,0.5664,-0.5625,-19.5625,-30.0625,0.1523,-0.707,-0.9648
2.722779,0.3231220632257686,0.4882818614991939,0.23227909256038173,-0.7766719894182678,-8.3008,-0.7266,4.2891,-0.1074,-1.0957,0.5664,-0.5625,-19.5625,-30.0625,0.1523,-0.707,-0.9648
2.735387,0.3274856108741242,0.4834270725655745,0.23100959039964397,-0.7782583178639784,-8.2383,-0.6211,4.4805,-0.1074,-1.0957,0.5664,-1.3125,-18.125,-28.8125,0.1523,-0.707,-0.9648
2.746212,0.33053108996754266,0.4800151613737086,0.23011448446919452,-0.7793471418140426,-8.1211,-0.5078,4.7305,-0.1074,-1.0957,0.5664,-1.3125,-18.125,-28.8125,0.1523,-0.707,-0.9648
2.754099,0.3326584639456055,0.477620233994597,0.22948476179789057,-0.7800987133349612,-7.9219,-0.2305,4.957,0.002,-1.002,0.5566,-1.3125,-18.125,-28.8125,0.1523,-0.707,-0.9648
2.759383,0.3341454243924257,0.4759405728521629,0.22904241756305987,-0.7806196112240772,-7.8828,-0.2188,5.0078,0.002,-1.002,0.5566,-1.3125,-18.125,-28.8125,0.3086,-0.3789,-0.4258
2.761979,0.33518521394561646,0.474763240722859,0.2287320239835135,-0.780981689167528,-7.8828,-0.2188,5.0078,0.002,-1.002,0.5566,-1.3125,-18.125,-28.8125,0.293,-0.4141,-0.4531
2.765388,0.33591253545756145,0.4739383399283272,0.22851437986776663,-0.7812338936977222,-7.9102,-0.1328,5.1602,0.002,-1.002,0.5566,-1.3125,-18.125,-28.8125,0.293,-0.4141,-0.4531
2.767765,0.3364214005743168,0.47336053250766874,0.22836184826147515,-0.781409824457227,-8.1484,-0.2305,5.3711,0.002,-1.002,0.5566,-4.0625,-17.5,-28.3125,0.293,-0.4141,-0.4531
2.782919,0.35195684549145817,0.45752578337832084,0.21660060447313964,-0.7873250374512589,-8.1484,-0.2305,5.3711,0.002,-1.002,0.5566,-3.8125,-18.5625,-28.8125,0.293,-0.4141,-0.4531
2.787737,0.36374352792444065,0.4451484281743302,0.2075738607534459,-0.7914838059738897,-8.0859,-0.0664,5.4961,0.002,-1.002,0.5566,-3.8125,-18.5625,-28.8125,0.293,-0.4141,-0.4531
2.806255,0.37191137464613,0.436378828984153,0.20120547249462903,-0.7942114358667082,-8.0625,0.0586,5.6562,-0.1953,-0.9844,0.4883,-3.8125,-18.5625,-28.8125,0.293,-0.4141,-0.4531
2.814969,0.3775870513716028,0.4301897150181463,0.19672419631638738,-0.7960304129320539,-7.8125,0.1523,5.793,-0.1953,-0.9844,0.4883,-5.625,-19.6875,-29.25,0.293,-0.4141,-0.4531
2.829183,0.3855127242457167,0.42114307217211494,0.19124247111582837,-0.7984013836708891,-7.7734,0.0078,5.8477,-0.1953,-0.9844,0.4883,-5.625,-19.6875,-29.25,0.293,-0.4141,-0.4531
2.841159,0.39201833433758776,0.4135128363092444,0.1869680728942651,-0.800232278447247,-7.8242,-0.2578,5.9258,-0.1953,-0.9844,0.4883,-5.625,-19.6875,-29.25,0.293,-0.4141,-0.4531
2.857246,0.39654412239718834,0.4081411888160001,0.18396216611854685,-0.8014558318591726,-7.8242,-0.2578,5.9258,-0.3242,-0.9727,0.4023,-7.0,-18.625,-27.9375,0.293,-0.4141,-0.4531
2.862947,0.3996981844057897,0.4043663329339776,0.18185138671560902,-0.8022838047236482,-8.0742,-0.4961,6.2891,-0.3242,-0.9727,0.4023,-7.0,-18.625,-27.9375,0.293,-0.4141,-0.4531
2.872691,0.40189910727079625,0.40171680653300024,0.18037062838747145,-0.8028493951788056,-8.0469,-0.2773,6.3281,-0.2383,-1.0293,0.375,-7.0,-18.625,-27.9375,0.293,-0.4141,-0.4531
2.884684,0.40343634192718225,0.39985866962882943,0.17933253671832666,-0.8032384475417287,-8.0312,-0.0195,6.4609,-0.2383,-1.0293,0.375,-8.4375,-17.625,-28.8125,0.293,-0.4141,-0.4531
2.892961,0.40451072917145964,0.39855628069576543,0.17860511133760001,-0.8035074208165198,-7.8594,0.4023,6.6367,-0.2383,-1.0293,0.375,-8.4375,-17.625,-28.8125,0.293,-0.4141,-0.4531
2.908368,0.40526197767455535,0.39764377976520104,0.1780955411062132,-0.8036940537937539,-7.7891,0.4805,6.6641,-0.1289,-1.1387,0.3555,-8.4375,-17.625,-28.8125,0.293,-0.4141,-0.4531
2.915926,0.40578744900941155,0.39700462249822654,0.17773865912308,-0.8038238892908101,-7.7891,0.4805,6.6641,-0.1523,-1.1504,0.3633,-8.8125,-16.9375,-28.375,0.293,-0.4141,-0.4531
2.925462,0.4061550823203007,0.39655701235535146,0.17748875169844136,-0.8039143785738108,-7.6562,0.5078,6.875,-0.1523,-1.1504,0.3633,-9.75,-16.625,-27.9375,0.293,-0.4141,-0.4531
2.942801,0.406412329873874,0.3962435865138747,0.17731377198498238,-0.8039775273834266,-7.6055,0.375,7.0273,-0.1523,-1.1504,0.3633,-9.75,-16.625,-27.9375,0.293,-0.4141,-0.4531
2.949081,0.40659235668531385,0.3960241394923778,0.1771912640661833,-0.8040216367505493,-7.6406,0.2109,7.1328,-0.3027,-1.1758,0.3828,-9.75,-16.625,-27.9375,0.293,-0.4141,-0.4531
2.959979,0.40671835300808645,0.3958705021991418,0.17710549746058044,-0.8040524669349812,-7.6406,0.2109,7.1328,-0.3027,-1.1758,0.3828,-9.75,-16.625,-27.9375,-0.8438,-0.3906,0.0156
2.968121,0.4068065396703855,0.39576294386190014,0.17704545525606738,-0.8040740253983717,-7.2891,0.2773,7.2578,-0.3027,-1.1758,0.3828,-9.75,-16.625,-27.9375,-0.8438,-0.3906,0.0156
2.987700,0.41958598944729747,0.3755506909240568,0.16855495248506497,-0.8090108182210873,-7.2852,0.3242,7.3125,-0.3027,-1.1758,0.3828,-9.75,-16.625,-27.9375,-0.8438,-0.3906,0.0156
2.990104,0.4293355184136868,0.35941737173069804,0.1620459637455223,-0.812546165556415,-7.2773,0.4219,7.4492,-0.3027,-1.1758,0.3828,-9.75,-16.625,-27.9375,-0.8438,-0.3906,0.0156
3.011598,0.43605696644446884,0.3480336529427615,0.15744904160966572,-0.8148231082454416,-7.2773,0.4219,7.4492,-0.5234,-1.3555,0.3086,-13.75,-17.0625,-27.5625,-0.6758,-0.1797,-0.0664
3.014686,0.4407103391942222,0.340022490676111,0.15421198687139034,-0.8163196468705785,-7.2773,0.4219,7.4492,-0.5234,-1.3555,0.3086,-14.4375,-16.375,-26.25,-0.6758,-0.1797,-0.0664
3.033926,0.4468329739521229,0.32850612778698624,0.15076069214913737,-0.818349088774598,-6.6328,0.3555,7.6523,-0.5234,-1.3555,0.3086,-14.4375,-16.375,-26.25,-0.6758,-0.1797,-0.0664
3.036476,0.45106976603688,0.3204074505917735,0.1483278359584776,-0.8196791963034011,-6.6328,0.3555,7.6523,-0.5234,-1.3555,0.3086,-14.4375,-16.375,-26.25,-0.6328,-0.1133,-0.1719
3.049533,0.45401118079758224,0.31472070467897645,0.1466167010447656,-0.8205658223030639,-6.6328,0.2383,7.7031,-0.5234,-1.3555,0.3086,-14.75,-15.3125,-26.1875,-0.6328,-0.1133,-0.1719
3.058113,0.4560581408575101,0.3107315208395137,0.14541497946466259,-0.8211646472307769,-6.3164,-0.0469,7.957,-0.5234,-1.3555,0.3086,-14.375,-15.625,-25.8125,-0.6328,-0.1133,-0.1719
3.067191,0.45748508216439937,0.30793501518199223,0.14457187089462875,-0.8215731252712237,-6.3164,-0.0469,7.957,-0.6309,-1.4336,0.209,-15.8125,-14.3125,-26.1875,-0.6328,-0.1133,-0.1719
3.092066,0.4638853924319528,0.29311297726849234,0.14207803848271564,-0.8238379429389966,-6.0508,-0.1133,8.0469,-0.6309,-1.4336,0.209,-15.8125,-14.3125,-26.1875,-0.6328,-0.1133,-0.1719
3.112821,0.46829129559896404,0.2826882949177759,0.14030905216177422,-0.8252902278981551,-5.7812,-0.0664,7.8945,-0.5957,-1.4766,0.1738,-15.8125,-14.3125,-26.1875,-0.6328,-0.1133,-0.1719
3.118041,0.4713385667300208,0.27536789783209537,0.13905951254412718,-0.8262414467499268,-5.6094,-0.0664,7.9414,-0.5957,-1.4766,0.1738,-18.0,-14.3125,-24.9375,-0.6328,-0.1133,-0.1719
3.120941,0.4734534498889337,0.27023262714056495,0.13817937925204615,-0.826875212572305,-5.5234,-0.1641,7.875,-0.5957,-1.4766,0.1738,-18.6875,-13.625,-25.375,-0.4531,-0.3203,-0.5898
3.124370,0.47492490196226733,0.2666326565841135,0.1375606305472272,-0.8273031106326617,-5.043,-0.0469,8.0352,-0.5938,-1.5273,0.1309,-18.6875,-13.625,-25.375,-0.4531,-0.3203,-0.5898
3.134768,0.4796851008220328,0.2527648642492397,0.13514559335589038,-0.8293056107653582,-4.9375,-0.4219,8.0781,-0.5938,-1.5273,0.1309,-18.6875,-13.625,-25.375,-0.4531,-0.3203,-0.5898
3.147770,0.48295343659176265,0.24302251039193426,0.1334367981684716,-0.8305965677882103,-4.8242,-0.4883,8.0859,-0.5938,-1.5273,0.1309,-18.6875,-13.625,-25.375,-0.25,-0.4375,-0.6211
3.161574,0.4852097133379734,0.23618661605487115,0.132231838133147,-0.8314458235284844,-4.8242,-0.4883,8.0859,-0.5938,-1.5273,0.1309,-19.0625,-13.625,-23.6875,-0.25,-0.4375,-0.6211
3.192336,0.48677354079075774,0.2313938358722087,0.13138410626607955,-0.8320135992440493,-4.3438,-0.7461,8.2031,-0.5938,-1.5273,0.1309,-21.1875,-11.5625,-24.5,-0.25,-0.4375,-0.6211
3.200428,0.48786055512736637,0.22803525348368636,0.13078862682854947,-0.8323979439016843,-4.1328,-0.6719,8.2969,-0.5938,-1.5273,0.1309,-21.125,-10.5,-24.0625,-0.25,-0.4375,-0.6211
3.202809,0.4886176947578763,0.22568250945401172,0.1303707863929308,-0.8326605619046259,-3.8867,-0.7188,8.3984,-0.5938,-1.5273,0.1309,-21.125,-10.5,-24.0625,-0.25,-0.4375,-0.6211
3.217089,0.4891458386740415,0.22403475771131592,0.13007780926671988,-0.8328412450049958,-3.8477,-0.707,8.5,-0.4961,-1.3926,-0.0117,-21.125,-10.5,-24.0625,-0.25,-0.4375,-0.6211
3.220629,0.48951462793302014,0.22288093417698918,0.12987248751231475,-0.832966178909656,-3.75,-0.7266,8.5039,-0.4961,-1.3926,-0.0117,-22.5625,-11.625,-23.1875,-0.25,-0.4375,-0.6211
3.226123,0.48977233206002896,0.22207306850034228,0.12972864675815543,-0.8330528753960463,-3.5391,-0.918,8.3711,-0.4961,-1.3926,-0.0117,-22.5625,-11.625,-23.1875,0.0547,-0.3984,-0.707
3.236370,0.4949308195981179,0.1997103471950221,0.12569136664295238,-0.8362780287599368,-3.5391,-0.918,8.3711,-0.4844,-1.3418,-0.0703,-23.6875,-11.25,-22.375,0.0547,-0.3984,-0.707
3.245712,0.49837987168903136,0.18398568151208614,0.12282296831105123,-0.8382608728486738,-3.3672,-0.9688,8.5938,-0.4844,-1.3418,-0.0703,-23.6875,-11.25,-22.375,0.0234,-0.5742,-0.6758
3.261969,0.500714112400974,0.17294698815690568,0.12079494373816495,-0.8395137274025086,-3.168,-0.8906,8.6641,-0.4844,-1.3418,-0.0703,-23.625,-10.1875,-22.75,0.0234,-0.5742,-0.6758
3.273188,0.5032670106585417,0.15705192707158988,0.11774322286239447,-0.8415423588007271,-2.9844,-0.9688,8.8086,-0.4844,-1.3418,-0.0703,-23.625,-10.1875,-22.75,0.0234,-0.5742,-0.6758
3.295413,0.505090235556081,0.14395579849672938,0.11520382365715458,-0.8431421357279227,-2.7539,-0.8828,8.8281,-0.4844,-1.3418,-0.0703,-23.625,-10.1875,-22.75,0.0234,-0.5742,-0.6758
3.303645,0.5064929170516895,0.13088742099781261,0.11258707310005586,-0.8447825512945769,-2.6484,-0.8906,8.8281,-0.4844,-1.3418,-0.0703,-23.625,-10.1875,-22.75,0.0234,-0.5742,-0.6758
3.319088,0.5074199574881175,0.12172436832471636,0.1107429363302239,-0.845839326912426,-2.5938,-0.9844,9.0977,-0.418,-1.2227,-0.2188,-23.625,-10.1875,-22.75,0.0234,-0.5742,-0.6758
3.330992,0.5080419469218339,0.1153034073158947,0.10944608237058345,-0.8465341454914556,-2.5547,-1.0039,9.0508,-0.418,-1.2227,-0.2188,-25.75,-9.9375,-20.1875,0.0234,-0.5742,-0.6758
3.341645,0.5084641175481176,0.11080560049788789,0.1085354071592931,-0.8469984801976228,-2.4297,-1.0234,8.9414,-0.418,-1.2227,-0.2188,-25.0,-7.75,-20.5625,0.0234,-0.5742,-0.6758
3.343909,0.5087531512099471,0.1076556701102596,0.10789653868815664,-0.8473127077804126,-2.2773,-1.0039,8.875,-0.418,-1.2227,-0.2188,-25.375,-9.1875,-21.0,0.0234,-0.5742,-0.6758
3.352146,0.5089522945357021,0.10545002340457625,0.10744865139210819,-0.8475273693308291,-2.1914,-1.0547,8.8867,-0.418,-1.2227,-0.2188,-25.375,-9.1875,-21.0,-0.0664,-0.1641,-0.6289
3.362205,0.5090901358894739,0.1039057368009804,0.1071347987805609,-0.8476750357832482,-2.0742,-1.168,9.0,-0.418,-1.2227,-0.2188,-25.4375,-10.5625,-20.5625,-0.0664,-0.1641,-0.6289
3.372968,0.5091858607746153,0.1028245742541749,0.10691493985677414,-0.8477771297647066,-1.6523,-1.3125,9.0586,-0.418,-1.2227,-0.2188,-25.4375,-10.5625,-20.5625,-0.0664,-0.1641,-0.6289
3.403204,0.5092524937873983,0.1020676812467577,0.10676095920632539,-0.8478479719888298,-1.6523,-1.3125,9.0586,-0.4238,-1.1719,-0.3125,-25.375,-10.1875,-19.3125,-0.0664,-0.1641,-0.6289
3.405541,0.5092989534593947,0.10153781703861953,0.10665313378518741,-0.8478972560222118,-1.6523,-1.3125,9.0586,-0.4043,-1.1562,-0.3242,-25.375,-10.1875,-19.3125,0.3359,0.0664,-0.6328
3.420961,0.5093313853728827,0.10116689260904643,0.10657763683112685,-0.8479316051672223,-1.2344,-1.2148,9.0781,-0.4043,-1.1562,-0.3242,-25.375,-10.1875,-19.3125,0.3359,0.0664,-0.6328
3.423615,0.5081042720313762,0.07860513885295439,0.10265744336706308,-0.85153551318234,-1.1094,-1.207,9.1055,-0.4043,-1.1562,-0.3242,-25.375,-10.1875,-19.3125,0.3359,0.0664,-0.6328
3.429073,0.506836773225739,0.06098811856263236,0.0996502765356869,-0.8540882607123647,-1.0586,-1.3516,9.0,-0.4043,-1.1562,-0.3242,-25.375,-10.1875,-19.3125,0.3359,0.0664,-0.6328
3.445229,0.5055641997028115,0.046902672730995076,0.09728798906542224,-0.8560023518969742,-1.0039,-1.2266,9.25,-0.4043,-1.1562,-0.3242,-25.375,-10.1875,-19.3125,0.3359,0.0664,-0.6328
3.450683,0.5046103426928937,0.03703593721431973,0.09562209102326419,-0.8572357651838588,-0.918,-1.5312,9.0898,-0.4609,-1.0391,-0.377,-26.8125,-9.9375,-16.6875,0.3359,0.0664,-0.6328
3.462866,0.5033153025948383,0.026648230203440853,0.09406631525435183,-0.8585540788647852,-0.9062,-1.7891,8.9648,-0.4609,-1.0391,-0.377,-26.8125,-8.875,-18.0,0.3359,0.0664,-0.6328
3.473248,0.5023746672006106,0.019374685010696446,0.09297085392811416,-0.8594188359907463,-0.5508,-1.7148,9.1367,-0.4023,-1.0312,-0.3789,-26.8125,-8.875,-18.0,0.3359,0.0664,-0.6328
3.482968,0.5010465637203786,0.010923245213136987,0.09169770458877738,-0.8604792587106117,-0.4961,-1.9531,9.1758,-0.4023,-1.0312,-0.3789,-26.8125,-8.875,-18.0,0.3359,0.0664,-0.6328
3.500467,0.5000942115301166,0.0050064880581817085,0.09080231820654434,-0.8611827063287509,-0.457,-1.7812,9.2109,-0.373,-0.9961,-0.4023,-26.8125,-8.875,-18.0,0.3359,0.0664,-0.6328
3.505102,0.4994164781119964,0.0008645598697028107,0.09017352402525364,-0.8616560621798633,-0.4453,-1.5625,9.3984,-0.373,-0.9961,-0.4023,-26.8125,-8.875,-18.0,0.043,-0.125,-0.5156
3.526878,0.49893664140528177,-0.0020348289181320923,0.08973238524848841,-0.861978066062071,-0.2266,-1.4648,9.4023,-0.373,-0.9961,-0.4023,-26.8125,-8.875,-18.0,-0.0469,0.1328,-0.3164
3.532163,0.4970808402521452,-0.010485333499150078,0.08823069101880232,-0.8631431174480727,-0.2266,-1.668,9.3008,-0.373,-0.9961,-0.4023,-26.8125,-8.875,-18.0,-0.0469,0.1328,-0.3164
3.535634,0.49575851286062145,-0.016400458751882424,0.08717533900101054,-0.863918388592934,-0.0469,-1.7617,9.1914,-0.373,-0.9961,-0.4023,-26.8125,-8.875,-18.0,-0.0391,0.0977,-0.4141
3.546176,0.4948215211594725,-0.020540759576787294,0.08643458228034645,-0.8644413238499513,-0.0469,-1.7617,9.1914,-0.4141,-1.0137,-0.416,-27.5,-10.1875,-14.0625,-0.0391,0.0977,-0.4141
3.555482,0.4941600727420234,-0.02343876923756111,0.08591507827915566,-0.8647976907511451,-0.0469,-1.7617,9.1914,-0.4141,-1.0137,-0.416,-27.1875,-10.1875,-13.625,0.082,0.0547,-0.4766
3.569987,0.49159206583385867,-0.03378126257594417,0.08433085013804696,-0.8660741162411959,-0.1406,-1.9531,9.2891,-0.4141,-1.0137,-0.416,-27.1875,-10.1875,-13.625,0.082,0.0547,-0.4766
3.582226,0.4893366126838605,-0.042791445661354635,0.0830704509698467,-0.8670743173690264,-0.1406,-1.9531,9.2891,-0.4141,-1.0137,-0.416,-27.875,-10.9375,-14.5,0.082,0.0547,-0.4766
3.601640,0.4872886304533956,-0.050897458988365056,0.08200486945063135,-0.8678907999776048,0.4336,-2.2305,9.1836,-0.4141,-1.0137,-0.416,-27.875,-10.9375,-14.5,0.082,0.0547,-0.4766
3.623142,0.4858342167438398,-0.05656963897602772,0.08125544494730282,-0.8684253234754485,0.4141,-2.1914,9.3008,-0.4473,-1.0703,-0.4863,-27.875,-10.9375,-14.5,0.082,0.0547,-0.4766
3.651602,0.4848059659790933,-0.060538998808975626,0.0807291468743364,-0.8687813360214565,0.6367,-2.125,9.2148,-0.4473,-1.0703,-0.4863,-28.3125,-13.375,-12.8125,0.082,0.0547,-0.4766
3.654865,0.4840812285085042,-0.06331691361569725,0.08035991348288248,-0.869021643551473,0.8828,-2.0312,9.1797,-0.4473,-1.0703,-0.4863,-27.5625,-13.75,-13.25,0.082,0.0547,-0.4766
3.656670,0.48357148810763795,-0.06526111456515173,0.08010104961986467,-0.8691854949692124,1.1523,-2.1641,9.1875,-0.4473,-1.0703,-0.4863,-27.5625,-13.75,-13.25,0.082,0.0547,-0.4766
3.662171,0.48321348534818265,-0.06662187625805012,0.07991965036976699,-0.8692980516867002,1.2773,-2.3359,9.1719,-0.4531,-1.043,-0.5059,-27.5625,-13.75,-13.25,0.082,0.0547,-0.4766
3.664641,0.48296230480032326,-0.06757431508551152,0.07979257645976398,-0.8693757926377962,1.3164,-2.4805,9.2109,-0.4531,-1.043,-0.5059,-28.625,-11.6875,-11.875,0.082,0.0547,-0.4766
3.673813,0.4827861959391646,-0.06824097212055276,0.07970357897355577,-0.8694296971195767,1.2852,-2.8438,9.0273,-0.4531,-1.043,-0.5059,-27.3125,-13.75,-12.8125,0.082,0.0547,-0.4766
3.679156,0.48266278198359974,-0.06870760499666016,0.07964125864807453,-0.8694671781179699,1.2656,-2.6797,9.2344,-0.4531,-1.043,-0.5059,-29.0,-12.375,-11.5,0.082,0.0547,-0.4766
3.682135,0.4825763251544883,-0.06903423311039376,0.07959762381891958,-0.8694932911423936,1.3164,-2.5391,9.4648,-0.4531,-1.043,-0.5059,-27.9375,-14.125,-11.5,0.082,0.0547,-0.4766
3.692071,0.48251577281316205,-0.0692628643675448,0.07956707439400654,-0.8695115095721843,1.3711,-2.6797,9.3633,-0.4531,-1.043,-0.5059,-28.3125,-13.0,-10.1875,0.082,0.0547,-0.4766
3.706921,0.48247337042537547,-0.06942290134577982,0.07954568742842726,-0.8695242326759222,1.5273,-2.2422,9.5547,-0.4531,-1.043,-0.5059,-28.3125,-13.0,-10.1875,0.082,0.0547,-0.4766
3.713280,0.48244368118013037,-0.06953492428991405,0.07953071546420276,-0.8695331242058079,1.5273,-2.2422,9.5547,-0.2031,-1.0195,-0.5898,-27.5625,-12.375,-11.875,0.082,0.0547,-0.4766
3.728041,0.48242289509712094,-0.06961333853399118,0.07952023460624437,-0.8695393410722898,1.5273,-2.2422,9.5547,-0.207,-1.0137,-0.5977,-27.5625,-12.375,-11.875,-0.2656,0.0703,0.1484
3.735674,0.4824083431391951,-0.0696682273518908,0.0795128978041343,-0.8695436893279894,1.8789,-2.3281,9.4414,-0.207,-1.0137,-0.5977,-27.5625,-12.375,-11.875,-0.2656,0.0703,0.1484
3.747418,0.4726356066416159,-0.09614128264527182,0.07361063478991542,-0.8728997144870991,1.9648,-2.1836,9.5508,-0.207,-1.0137,-0.5977,-27.5625,-12.375,-11.875,-0.2656,0.0703,0.1484
3.757679,0.4648192878293334,-0.11611493752550972,0.06893665165982858,-0.8750474781423061,2.1875,-2.1445,9.5352,-0.207,-1.0137,-0.5977,-27.5625,-12.375,-11.875,-0.2656,0.0703,0.1484
3.772135,0.4583984896554214,-0.13160495294907215,0.06516768987609045,-0.8765295963269665,2.3281,-2.2773,9.3555,-0.207,-1.0137,-0.5977,-27.5625,-12.375,-11.875,-0.2656,0.0703,0.1484
3.781688,0.4538220287253046,-0.1424264041867192,0.06251745106343118,-0.8774120206303431,2.4922,-2.2617,9.2266,-0.2871,-0.9453,-0.6445,-27.5625,-12.375,-11.875,-0.2656,0.0703,0.1484
3.791924,0.45057888124617607,-0.1499896215430604,0.06065672026736117,-0.8779536135188014,2.4922,-2.2617,9.2266,-0.3008,-0.9297,-0.6504,-27.5625,-14.0625,-8.875,-0.2656,0.0703,0.1484
3.813668,0.448289442887133,-0.15527766266066798,0.05935158765012142,-0.8782954012847806,2.7227,-2.4531,9.0586,-0.3008,-0.9297,-0.6504,-27.3125,-15.4375,-9.3125,-0.2656,0.0703,0.1484
3.815989,0.4466774761285003,-0.15897609574915167,0.05843674796542057,-0.8785163514625413,3.0,-2.6133,9.043,-0.3008,-0.9297,-0.6504,-27.3125,-15.4375,-9.3125,-0.2656,0.0703,0.1484
3.839420,0.4455445372713295,-0.1615633772541456,0.05779576300807172,-0.8786620455079566,2.9609,-2.7852,9.0156,-0.3281,-0.8672,-0.6875,-27.3125,-15.4375,-9.3125,-0.2656,0.0703,0.1484
3.844672,0.44474925411940414,-0.16337365806355184,0.05734678628323791,-0.8787596343222372,2.8672,-2.7383,9.0234,-0.3281,-0.8672,-0.6875,-27.5,-12.3125,-8.875,-0.2656,0.0703,0.1484
3.846920,0.44419146925197545,-0.16464044548923804,0.057032364102299234,-0.8788257914955497,2.875,-2.6055,8.9961,-0.3281,-0.8672,-0.6875,-26.875,-12.625,-8.0,-0.2656,0.0703,0.1484
3.861710,0.44380048932536525,-0.1655269918235941,0.056812201814511284,-0.878871045362962,2.9258,-2.6133,8.9805,-0.3281,-0.8672,-0.6875,-27.5625,-13.6875,-8.0,-0.2656,0.0703,0.1484
3.871332,0.4435265444747582,-0.16614747150507178,0.05665805608995291,-0.8789022054465784,3.1719,-2.4883,8.8125,-0.3281,-0.8672,-0.6875,-27.5625,-13.6875,-8.0,-0.2656,0.0703,0.1484
3.876789,0.4433346568476619,-0.166581755514578,0.05655013869564419,-0.8789237638048881,3.1641,-2.3945,8.8047,-0.3281,-0.8672,-0.6875,-26.125,-13.625,-6.25,-0.2656,0.0703,0.1484
3.884068,0.4432002740596419,-0.1668857280441789,0.0564745892066815,-0.878938730300673,3.1641,-2.3945,8.8047,-0.2598,-0.7891,-0.7129,-26.125,-13.625,-6.25,-0.0898,-0.0508,-0.2695
3.916369,0.443106176268425,-0.1670984953296216,0.05642170113273848,-0.8789491458853804,3.5859,-2.8242,8.4531,-0.2598,-0.7891,-0.7129,-26.875,-13.3125,-6.6875,-0.0898,-0.0508,-0.2695
3.921972,0.4304521330791324,-0.18617910494505077,0.05110817552076446,-0.8817234580096094,3.5859,-2.8242,8.4531,-0.2598,-0.7891,-0.7129,-26.125,-14.375,-7.125,-0.0898,-0.0508,-0.2695
3.934036,0.42052003103412056,-0.20057337532092046,0.04692397133349508,-0.8835900438131525,3.7109,-2.7383,8.3398,-0.2598,-0.7891,-0.7129,-26.125,-14.375,-7.125,-0.0898,-0.0508,-0.2695
3.937055,0.41254816536086114,-0.21170480547450668,0.043477755455727164,-0.884926421448089,3.8047,-2.6641,8.3594,-0.2598,-0.7891,-0.7129,-26.125,-14.375,-7.125,-0.0898,-0.0508,-0.2695
3.942479,0.40691774110724177,-0.21947250259556664,0.041059880226914355,-0.8857560944257569,3.8633,-2.5742,8.2734,-0.2598,-0.7891,-0.7129,-25.8125,-14.75,-6.3125,-0.0898,-0.0508,-0.2695
3.951511,0.4029522834539427,-0.2248974200168401,0.03936483367082537,-0.8862849528222234,3.957,-2.5078,8.2852,-0.2598,-0.7891,-0.7129,-25.75,-14.375,-5.8125,-0.0898,-0.0508,-0.2695
3.971193,0.40016475440369165,-0.228688569904248,0.03817711571407122,-0.886629694497053,3.9102,-2.4336,8.3242,-0.2598,-0.7891,-0.7129,-26.1875,-15.375,-6.3125,-0.0898,-0.0508,-0.2695
3.973684,0.3982077863645988,-0.2313392365851469,0.03734514937580515,-0.8868585322997723,4.0742,-2.3828,8.2969,-0.2598,-0.7891,-0.7129,-26.1875,-15.375,-6.3125,-0.0898,-0.0508,-0.2695
3.988628,0.3921287006366001,-0.23792370761507822,0.034005355213751844,-0.8879589108221917,4.1484,-2.3164,8.3789,-0.2598,-0.7891,-0.7129,-26.1875,-15.375,-6.3125,-0.0898,-0.0508,-0.2695
3.999171,0.3868694939691601,-0.24342509654522296,0.031156116630619998,-0.8888787956771689,4.2344,-2.2773,8.418,-0.2598,-0.7891,-0.7129,-26.1875,-15.375,-6.3125,-0.0898,-0.0508,-0.2695
4.010707,0.38317251830495375,-0.24726651971468686,0.029160337373603854,-0.8894873603195741,4.3125,-2.6328,8.1992,-0.1504,-0.5703,-0.8008,-26.1875,-15.375,-6.3125,-0.0898,-0.0508,-0.2695
4.017663,0.3805771190555752,-0.24995073837444334,0.027762699842687234,-0.8898960148999848,4.3906,-2.7773,8.1055,-0.1504,-0.5703,-0.8008,-26.1875,-15.375,-6.3125,-0.1172,-0.3438,-0.2734
4.035902,0.3787566895423356,-0.2518273161595652,0.026784081261214322,-0.8901735706893312,4.3516,-2.7188,8.1602,-0.1504,-0.5703,-0.8008,-26.1875,-15.375,-6.3125,-0.1172,-0.3438,-0.2734
4.042689,0.3774806121011327,-0.2531397445848202,0.02609892114283478,-0.8903636917094421,4.4258,-2.6992,8.1211,-0.1641,-0.541,-0.9102,-26.1875,-15.375,-6.3125,-0.1172,-0.3438,-0.2734
4.057429,0.36952505230578153,-0.2592519347917122,0.02316229260279622,-0.8920219606189893,4.4258,-2.6992,8.1211,-0.1641,-0.541,-0.9102,-25.1875,-19.25,-5.875,-0.1172,-0.3438,-0.2734
4.064805,0.3639311664240271,-0.26351346410917026,0.02110497515403807,-0.8931233623426159,4.5234,-2.5938,8.1094,-0.0977,-0.5176,-0.9688,-24.75,-18.1875,-5.875,-0.1172,-0.3438,-0.2734
4.079903,0.36000343193149104,-0.2664880230561812,0.019664117066409283,-0.8938651940114656,4.6172,-2.6719,8.0703,-0.0977,-0.5176,-0.9688,-24.75,-18.1875,-5.875,-0.2812,-0.4609,-0.1797
4.092372,0.3572482106078946,-0.26856598257110537,0.01865518524846437,-0.8943701767648671,4.6289,-2.5586,8.1211,-0.0977,-0.5176,-0.9688,-23.3125,-17.4375,-5.0625,-0.2812,-0.4609,-0.1797
4.109500,0.35531673739539915,-0.270018459989557,0.017948780711880594,-0.894716652724489,4.6367,-2.4219,8.3477,0.002,-0.457,-1.041,-23.3125,-17.4375,-5.0625,-0.2812,-0.4609,-0.1797
4.121121,0.34449373248043197,-0.2758905968329645,0.013046873943105724,-0.8972392244775992,4.7422,-2.0703,8.207,0.0273,-0.459,-1.0605,-23.3125,-17.4375,-5.0625,-0.2812,-0.4609,-0.1797
4.141287,0.3368795531443253,-0.27997162475227305,0.009613780342637462,-0.8989080215652631,4.8477,-2.0,8.2344,0.0273,-0.459,-1.0605,-22.6875,-20.1875,-3.75,-0.3008,-0.1797,0.0859
4.145157,0.331531492527712,-0.28281362009295596,0.007209989966609386,-0.9000285227685544,4.9336,-1.5508,8.1602,0.0273,-0.459,-1.0605,-22.6875,-20.1875,-3.75,-0.3008,-0.1797,0.0859
4.155019,0.32777914597950836,-0.2847957040553133,0.005527112719414369,-0.9007894811983372,4.9336,-1.5508,8.1602,0.0273,-0.459,-1.0605,-22.6875,-20.1875,-3.75,-0.332,0.1602,0.0625
4.168570,0.3251483024266956,-0.286179545488253,0.004349017695733551,-0.9013106763032696,5.1836,-1.3008,8.0508,0.0273,-0.459,-1.0605,-22.6875,-20.1875,-3.75,-0.332,0.1602,0.0625
4.183142,0.3233046764352992,-0.2871464498666972,0.003524321813447211,-0.9016698850908652,5.4336,-1.4375,7.8594,0.0273,-0.459,-1.0605,-22.6875,-20.1875,-3.75,-0.332,0.1602,0.0625
4.197960,0.31104516989560616,-0.2922400646002815,-0.001193250543928059,-0.9043479546502973,5.4609,-1.2812,7.9141,0.0273,-0.459,-1.0605,-22.6875,-20.1875,-3.75,-0.332,0.1602,0.0625
4.203629,0.3007037546682798,-0.2964194381506818,-0.004856117329921124,-0.9064707313197217,5.4414,-1.2539,7.8906,0.0273,-0.459,-1.0605,-22.6875,-20.1875,-3.75,-0.332,0.1602,0.0625
4.215546,0.2917063478123643,-0.29992827665684413,-0.007780181474335638,-0.9082344985100785,5.4414,-1.2539,7.8906,0.0273,-0.459,-1.0605,-20.1875,-21.5625,-3.375,-0.332,0.1602,0.0625
4.223381,0.2853896153419956,-0.3023658680241179,-0.009826649436048936,-0.9094124951141975,5.4414,-1.168,7.8711,-0.2715,-0.3848,-1.2031,-20.1875,-21.5625,-3.375,-0.332,0.1602,0.0625
4.241195,0.2774431152709389,-0.30531954507067743,-0.011919960034642003,-0.910858500393647,5.5586,-0.9961,7.8164,-0.2715,-0.3848,-1.2031,-20.1875,-21.5625,-3.375,-0.332,0.1602,0.0625
4.243995,0.27186728130204446,-0.3073730154934894,-0.013384813936942665,-0.9118283048138764,5.5586,-0.9961,7.8164,-0.2715,-0.3848,-1.2031,-20.1875,-21.5625,-3.375,-0.1523,0.2852,-0.0547
4.261585,0.2679578303466985,-0.30880348041181443,-0.014409946966956015,-0.912486364319955,5.5586,-1.043,7.6953,-0.2715,-0.3848,-1.2031,-20.1875,-21.5625,-3.375,-0.1523,0.2852,-0.0547
4.276482,0.25807733001049,-0.31217700951031874,-0.016419307256519005,-0.9141509792244753,5.5586,-1.0352,7.6797,-0.2715,-0.3848,-1.2031,-20.1875,-21.5625,-3.375,-0.1523,0.2852,-0.0547
4.286548,0.25114268321907596,-0.3145171404162475,-0.01782483182130475,-0.9152532963177197,5.6836,-0.918,7.6602,-0.2715,-0.3848,-1.2031,-20.1875,-21.5625,-3.375,-0.1992,0.1758,-0.1055
4.320208,0.2462797542784886,-0.31614467595858686,-0.018808136496994383,-0.9159940395532482,5.7695,-0.6523,7.5195,-0.2715,-0.3848,-1.2031,-20.1875,-21.5625,-3.375,-0.1992,0.1758,-0.1055
4.323012,0.2428715481648462,-0.317278745797371,-0.019496154726084514,-0.9164974132577541,5.9609,-0.7852,7.3633,-0.2715,-0.3848,-1.2031,-17.6875,-22.875,-3.3125,-0.1992,0.1758,-0.1055
4.328135,0.24048379753053162,-0.3180700340452454,-0.019977616824577396,-0.9168423481677539,6.0664,-0.8438,7.3281,-0.2715,-0.3848,-1.2031,-17.25,-20.75,-2.875,-0.1992,0.1758,-0.1055
4.330539,0.22743191436646004,-0.3221144510551658,-0.02148936378691312,-0.9187247748880348,6.1406,-0.8633,7.2852,-0.2715,-0.3848,-1.2031,-15.875,-20.75,-3.3125,-0.1992,0.1758,-0.1055
4.343167,0.21826844458857558,-0.32490897429533494,-0.022545251024239047,-0.9199373653545613,6.2266,-1.0234,7.1992,-0.2715,-0.3848,-1.2031,-15.875,-20.75,-3.3125,0.1289,-0.2305,-0.5156
4.350647,0.2118413526792625,-0.3268470206560655,-0.02328315304769352,-0.9207345769370407,6.0664,-0.9297,6.9727,-0.2715,-0.3848,-1.2031,-15.125,-21.0625,-4.1875,0.1289,-0.2305,-0.5156
4.366606,0.2073363975834744,-0.32819470825408253,-0.02379906236124787,-0.9212673099279332,6.0664,-0.9297,6.9727,-0.4355,-0.2793,-1.2246,-15.125,-21.0625,-4.1875,0.1289,-0.2305,-0.5156
4.373683,0.20418006256852367,-0.32913368550239924,-0.024159886091739646,-0.9216278093792286,6.1406,-1.0547,7.0508,-0.4355,-0.2793,-1.2246,-15.1875,-23.1875,-5.0625,0.1289,-0.2305,-0.5156
4.386733,0.2019692439922085,-0.3297888053415365,-0.024412307076204537,-0.9218740736216824,6.1523,-0.5859,7.0039,-0.4355,-0.2793,-1.2246,-15.9375,-23.1875,-3.75,0.1289,-0.2305,-0.5156
4.395561,0.20042099758038137,-0.3302463272835746,-0.02458892495552875,-0.9220434760975896,6.1328,-0.5156,7.0273,-0.4355,-0.2793,-1.2246,-14.125,-21.8125,-4.5625,0.1289,-0.2305,-0.5156
4.403472,0.19933689518714642,-0.3305660722488726,-0.02471251982418214,-0.9221605963491615,6.1133,-0.3633,7.0586,-0.4355,-0.2793,-1.2246,-14.125,-21.8125,-4.5625,0.1289,-0.2305,-0.5156
4.421549,0.18342236139007403,-0.3343092919653116,-0.025976770482281076,-0.9240772381370791,6.2461,-0.4961,7.0,-0.4355,-0.2793,-1.2246,-14.125,-21.8125,-4.5625,0.1289,-0.2305,-0.5156
4.432739,0.17046112468583346,-0.33719667253600205,-0.02709937851998039,-0.9254766516154364,6.3711,-0.3242,6.9609,-0.4355,-0.2793,-1.2246,-14.125,-21.8125,-4.5625,0.1289,-0.2305,-0.5156
4.448390,0.15951868910627867,-0.33947279262532354,-0.028124131616164116,-0.9265641068559775,6.3242,-0.1719,6.9766,-0.4355,-0.2793,-1.2246,-14.125,-21.8125,-4.5625,0.1289,-0.2305,-0.5156
4.451030,0.14810895069026944,-0.34152060391915345,-0.02935201867692301,-0.9276668986353419,6.3125,-0.1992,7.0039,-0.2969,-0.1641,-1.2324,-14.125,-21.8125,-4.5625,0.1289,-0.2305,-0.5156
4.459340,0.14010930694021187,-0.342926342529865,-0.030209224966344244,-0.9283632416434615,6.1992,-0.1641,7.0977,-0.2969,-0.1641,-1.2324,-13.375,-22.75,-2.375,-0.1836,0.0781,-0.3047
4.477172,0.13450365723764618,-0.3438967012873513,-0.030808093440097835,-0.928813590776945,6.2461,0.2773,7.0156,-0.2969,-0.1641,-1.2324,-13.375,-22.75,-2.375,-0.1836,0.0781,-0.3047
4.487784,0.1305769357421975,-0.3445692375290482,-0.031226711825400013,-0.9291106483457187,6.2461,0.2773,7.0156,-0.2969,-0.1641,-1.2324,-13.375,-22.75,-2.375,-0.1602,0.4023,-0.3633
4.497317,0.12782691135545976,-0.3450367160832912,-0.03151945190651176,-0.9293096735961026,6.5156,0.4609,7.0742,-0.2969,-0.1641,-1.2324,-11.9375,-24.5625,-2.875,-0.1602,0.4023,-0.3633
4.510226,0.11482058838288098,-0.34623128776068735,-0.03322991106793012,-0.9305030364643645,6.4375,0.5352,7.1797,-0.2969,-0.1641,-1.2324,-11.9375,-24.5625,-2.875,-0.1602,0.4023,-0.3633
4.525159,0.1057034322827033,-0.347031516063876,-0.03442387537809274,-0.9312415948968437,6.207,0.1914,7.0078,-0.2969,-0.1641,-1.2324,-11.9375,-24.5625,-2.875,-0.1602,0.4023,-0.3633
4.550094,0.09527341016234353,-0.34760222201838276,-0.035410804008032024,-0.9321168100208393,6.4102,-0.2578,6.9023,-0.2969,-0.1641,-1.2324,-11.9375,-24.5625,-2.875,-0.1602,0.4023,-0.3633
4.555585,0.08593056725904778,-0.34793872644761736,-0.03613142280242774,-0.9328714276548621,6.4883,-0.4609,6.9688,-0.2969,-0.1641,-1.2324,-11.9375,-24.5625,-2.875,-0.1602,0.4023,-0.3633
4.564757,0.07525059642899266,-0.3479996512961071,-0.036816496759957,-0.9337441491121605,6.3828,-0.3438,7.0664,-0.4258,0.043,-1.3125,-11.9375,-24.5625,-2.875,-0.1602,0.4023,-0.3633
4.573012,0.06776905310706852,-0.3480184260537373,-0.03729354841917195,-0.9342910262944613,6.1602,0.1055,7.2148,-0.4258,0.043,-1.3125,-9.125,-24.125,-4.5625,-0.1602,0.4023,-0.3633
4.583308,0.06252958958216279,-0.3480198687390606,-0.0376262375105741,-0.9346424383903885,6.1797,0.6523,7.3633,-0.4258,0.043,-1.3125,-9.125,-24.125,-4.5625,-0.25,-0.125,-0.1562
4.592606,0.05295671437290689,-0.34754329573032466,-0.038732755899837386,-0.9353657132994206,5.9883,0.8125,7.5195,-0.4258,0.043,-1.3125,-9.125,-24.125,-4.5625,-0.25,-0.125,-0.1562
4.602883,0.04427384167843868,-0.3469927666132573,-0.039866658475258415,-0.9359735553973345,5.7773,0.8516,7.5938,-0.4258,0.043,-1.3125,-9.125,-24.125,-4.5625,-0.25,-0.125,-0.1562
4.631655,0.03615456117937309,-0.3463624505714342,-0.041019919425881846,-0.9365058818557265,5.8633,0.8711,7.6211,-0.4258,0.043,-1.3125,-9.125,-24.125,-4.5625,-0.25,-0.125,-0.1562
4.634084,0.028340140393530857,-0.34564746870289886,-0.04215684066607266,-0.9369885082576034,5.9961,0.9102,7.6641,-0.4258,0.043,-1.3125,-9.125,-24.125,-4.5625,-0.25,-0.125,-0.1562
4.637415,0.02286881121525836,-0.34513398771347553,-0.04295112747628404,-0.9372911760211505,5.9961,0.9102,7.6641,-0.3594,0.1211,-1.4316,-8.0625,-23.0,-5.375,-0.25,-0.125,-0.1562
4.649205,0.01903841110025407,-0.34476819642652257,-0.043506345104360085,-0.9374858012638062,5.9883,0.9883,7.7695,-0.3984,0.1211,-1.4355,-8.0625,-23.0,-5.375,-0.2656,0.168,0.2461
4.658383,0.04767015556969603,-0.3477010649681154,-0.04084577765794823,-0.935501548975477,5.9219,0.9766,7.6094,-0.3984,0.1211,-1.4355,-5.5625,-23.6875,-5.375,-0.2656,0.168,0.2461
4.671040,0.09752981460349025,-0.35211917682495725,-0.036121609704103115,-0.9301587229542644,5.9102,1.0234,7.6953,-0.3984,0.1211,-1.4355,-5.5625,-23.3125,-6.625,-0.2656,0.168,0.2461
4.680439,0.1834036832354785,-0.357645176474578,-0.027709973489501046,-0.9152514267070767,5.6055,0.8438,7.8555,-0.3984,0.1211,-1.4355,-5.625,-24.75,-5.75,-0.2656,0.168,0.2461
4.703975,0.3264203817740705,-0.3607044368033942,-0.012889589026286683,-0.8735993945324995,5.5195,0.8242,7.7539,-0.3984,0.1211,-1.4355,-5.625,-24.75,-5.75,-0.2656,0.168,0.2461
4.708047,0.5427066818902094,-0.34837567842284023,0.011762765234231507,-0.7641763418669734,5.8047,0.7461,7.4531,-0.3984,0.1211,-1.4355,-5.625,-24.75,-5.75,-0.2656,0.168,0.2461
4.713929,0.8059138909664948,-0.2912046175302886,0.044770307011568866,-0.5135156187365415,5.8047,0.957,7.5078,-0.3984,0.1211,-1.4355,-5.625,-24.75,-5.75,-0.2656,0.168,0.2461
4.729465,0.9733366147356907,-0.17325479037746952,0.07561637305819298,-0.1299260410835682,5.8047,0.957,7.5078,-0.3984,0.1211,-1.4355,-5.625,-24.75,-5.75,-0.2578,-0.2695,-0.0234
4.738558,0.9601638610346781,-0.028763525468531895,0.09175566579909372,0.2623717160049181,5.6523,1.457,7.6055,-0.3984,0.1211,-1.4355,-5.625,-24.75,-5.75,-0.2578,-0.2695,-0.0234
4.751574,0.8250101245215772,0.0930965749795387,0.09242726454999718,0.5496803825240405,5.7305,1.4062,7.582,-0.3984,0.1211,-1.4355,-5.625,-24.75,-5.75,-0.2578,-0.2695,-0.0234
4.764488,0.6580640714296582,0.17886881883467248,0.08578884150005762,0.7263593451014373,5.4805,1.6562,7.5742,-0.3984,0.1211,-1.4355,-5.625,-24.75,-5.75,-0.4648,0.2344,-0.0117
4.771681,0.5084418771488036,0.23406761836381648,0.0773397344956375,0.8250562241829559,5.4805,1.6562,7.5742,-0.3984,0.1211,-1.4355,-0.9375,-25.0,-8.8125,-0.4648,0.2344,-0.0117
4.782084,0.39045964265978544,0.2684949556949318,0.06962795406203884,0.8778403466653284,5.4805,1.6562,7.5742,-0.498,0.1914,-1.3828,-0.1875,-23.9375,-7.4375,-0.4648,0.2344,-0.0117
4.792572,0.3108591026275242,0.2877122296155737,0.06345218946260335,0.9036382632976802,5.5664,1.5977,7.543,-0.498,0.1914,-1.3828,-0.1875,-23.9375,-7.4375,-0.4648,0.2344,-0.0117
4.802818,0.25563549638685706,0.2993661680233216,0.058749596532578365,0.917376081733842,5.4531,1.8008,7.5586,-0.498,0.1914,-1.3828,-0.1875,-23.9375,-7.4375,-0.4648,0.2344,-0.0117
4.817142,0.22074825719391938,0.3056718397481311,0.05513048198061067,0.9245515471229421,5.4531,1.6172,7.543,-0.5703,0.2539,-1.4043,-0.1875,-23.9375,-7.4375,-0.4648,0.2344,-0.0117
4.832742,0.19832568015612856,0.30917031817667245,0.0524535777772868,0.9286168537817447,5.3867,1.5703,7.4219,-0.5703,0.2539,-1.4043,-0.1875,-23.9375,-7.4375,-0.4648,0.2344,-0.0117
4.839670,0.1825616652354106,0.3115208371460806,0.05056237421252971,0.931165641937175,5.2695,1.5312,7.3477,-0.6016,0.3281,-1.4355,2.3125,-23.5,-9.625,-0.4648,0.2344,-0.0117
4.867060,0.17604448726743577,0.3117146326919642,0.04904681620013534,0.9324359152719771,5.3945,1.4922,7.4023,-0.6016,0.3281,-1.4355,2.3125,-23.5,-9.625,-0.4648,0.2344,-0.0117
4.869912,0.1714774325573161,0.31184168428868586,0.047984531882246724,0.9332993832439773,5.3164,1.2266,7.6172,-0.6016,0.3281,-1.4355,4.0625,-24.5625,-10.0625,-0.4648,0.2344,-0.0117
4.874173,0.16827809918862,0.31192640150797013,0.04724026614322778,0.9338911920724333,5.3164,1.2266,7.6172,-0.6016,0.3281,-1.4355,4.875,-23.4375,-10.5,-0.1133,-0.6016,-0.2383
4.886545,0.17573696014520981,0.30825003948482826,0.04642143292815639,0.933779141211357,5.3164,1.2266,7.6172,-0.6016,0.3281,-1.4355,5.625,-22.0,-10.875,-0.1133,-0.6016,-0.2383
4.904800,0.1809510087549799,0.3056637045099724,0.04584630448800693,0.9336619026931475,4.9336,1.5508,7.6289,-0.6016,0.3281,-1.4355,7.4375,-21.3125,-10.875,-0.2969,-0.5078,-0.4023
4.913154,0.18459718772088377,0.30384703185855605,0.045442777869123506,0.9335608247221088,4.8086,1.8867,7.6602,-0.6016,0.3281,-1.4355,7.4375,-21.3125,-10.875,-0.2969,-0.5078,-0.4023
4.920898,0.18714766630895496,0.302572332029956,0.04515985640860904,0.9334807562313322,4.8477,1.8867,7.8164,-0.6016,0.3281,-1.4355,7.4375,-19.875,-10.0,-0.2969,-0.5078,-0.4023
4.941455,0.18893207421548142,0.3016785690906107,0.04496159197125006,0.933420145235514,4.9336,1.6875,7.8516,-0.6016,0.3281,-1.4355,7.75,-21.625,-10.4375,-0.2969,-0.5078,-0.4023
4.943497,0.19018069565039084,0.3010522181751266,0.04482270044654431,0.9333754820319895,4.7812,1.6094,7.8555,-0.6016,0.3281,-1.4355,7.75,-21.625,-10.4375,-0.2969,-0.5078,-0.4023
4.960495,0.1910544983398005,0.30061342374886085,0.04472542478220862,0.933343122599704,4.5898,1.6758,8.0273,-0.5293,0.7266,-1.5703,7.75,-21.625,-10.4375,-0.2969,-0.5078,-0.4023
4.962603,0.19166604362735035,0.30030609813928555,0.044657306843177424,0.9333199344737638,4.4961,1.9062,7.9492,-0.5,0.7402,-1.5371,7.75,-21.625,-10.4375,-0.2969,-0.5078,-0.4023
4.973704,0.1920940664953762,0.3000908880110051,0.04460961223876509,0.9333034399625575,4.457,1.9062,7.8633,-0.5,0.7402,-1.5371,10.3125,-20.5,-10.8125,-0.2969,-0.5078,-0.4023
4.987735,0.19239365256256566,0.29994020120348064,0.0445762202368373,0.9332917650686989,4.457,1.9062,7.8633,-0.5,0.7402,-1.5371,11.0625,-20.125,-11.6875,-0.0508,-0.2891,-0.4609
5.004049,0.19260334738736784,0.29983470135539986,0.04455284308776361,0.9332835295938186,4.457,1.9062,7.8633,-0.5,0.7402,-1.5371,12.5,-19.0625,-9.5,0.0,-0.2266,-0.3047
5.016882,0.19275012569111,0.2997608423715891,0.04453647779470822,0.9332777338886736,4.3125,2.0391,8.1875,-0.5,0.7402,-1.5371,13.25,-19.0625,-11.625,0.0,-0.2266,-0.3047
5.039030,0.19285286618911845,0.29970913680938516,0.04452502149811737,0.9332736617821202,3.9688,2.3359,8.1211,-0.5,0.7402,-1.5371,13.25,-19.0625,-11.625,0.0,-0.2266,-0.3047
5.046800,0.1929247821736731,0.29967294094768004,0.044517001828575146,0.9332708039123497,3.9688,2.4609,8.2734,-0.4082,0.8633,-1.4121,13.25,-19.0625,-11.625,0.0,-0.2266,-0.3047
5.052984,0.19297512202992265,0.29964760296799475,0.04451138795102472,0.9332687997869343,3.6719,2.3281,8.5,-0.4082,0.8633,-1.4121,15.0,-19.6875,-11.625,0.0,-0.2266,-0.3047
5.059164,0.19301035915409664,0.29962986601419817,0.044507458197009214,0.9332673951319429,3.4492,2.1445,8.4727,-0.4082,0.8633,-1.4121,15.0,-19.6875,-11.625,-0.1172,-0.0391,-0.1133
5.073227,0.193035024675771,0.29961745000921153,0.044504707359256664,0.9332664110109552,3.3945,2.0195,8.3398,-0.4082,0.8633,-1.4121,15.0,-19.6875,-11.625,-0.1172,-0.0391,-0.1133
5.082019,0.1930522902532074,0.29960875876851983,0.044502781774624744,0.9332657217060413,3.2031,2.1445,8.4531,-0.5703,0.9785,-1.4805,15.0,-19.6875,-11.625,-0.1172,-0.0391,-0.1133
5.102354,0.23740826340737206,0.27277978141842235,0.04903720433297497,0.93103375873618,3.2031,2.1445,8.4531,-0.5703,0.9785,-1.4805,16.875,-17.875,-11.25,-0.1172,-0.0391,-0.1133
5.103825,0.26812169362361027,0.2535291202932428,0.05213691759940658,0.9279630835302524,2.9258,1.9258,8.6953,-0.498,1.0137,-1.4668,18.0,-16.125,-12.0625,-0.1172,-0.0391,-0.1133
5.119041,0.28942454162605036,0.23984216159835284,0.05426697148779179,0.9250752769531372,2.8203,2.1562,8.7188,-0.498,1.0137,-1.4668,19.4375,-16.0625,-11.5625,-0.1172,-0.0391,-0.1133
5.137285,0.30422935342053187,0.2301643784471668,0.055737431333716565,0.9226929056623735,2.7305,2.5195,8.7461,-0.498,1.0137,-1.4668,19.4375,-16.0625,-11.5625,-0.0312,-0.0781,-0.3047
5.147778,0.32620760517885167,0.21326927650640304,0.05950038538112512,0.9190019141228224,2.6172,2.4531,8.6992,-0.498,1.0137,-1.4668,19.4375,-16.0625,-11.5625,-0.0312,-0.0781,-0.3047
5.168664,0.34144446432399267,0.2013364359869821,0.06210739787014437,0.9159814345587803,2.3867,2.4336,8.6211,-0.498,1.0137,-1.4668,19.4375,-16.0625,-11.5625,-0.0664,-0.0117,-0.4375
5.172168,0.35203309691894524,0.19293495004291433,0.06391824636315782,0.9136537974021962,2.207,2.5273,8.8828,-0.498,1.0137,-1.4668,19.4375,-16.0625,-11.5625,-0.0664,-0.0117,-0.4375
5.183417,0.36423455581018604,0.18209515163951104,0.06726518983473788,0.910851216357335,2.0312,2.7383,8.8359,-0.498,1.0137,-1.4668,19.4375,-16.0625,-11.5625,-0.0664,-0.0117,-0.4375
5.199833,0.37271510076362374,0.17447512008642382,0.06959700691169877,0.908734363146086,1.9453,2.8242,8.8945,-0.498,1.0137,-1.4668,22.4375,-13.8125,-9.375,0.0156,0.332,-0.2617
5.222110,0.3786209293307227,0.16912614502812656,0.07122361573018186,0.9071767939618961,1.9453,2.8242,8.8945,-0.498,1.0137,-1.4668,23.4375,-14.1875,-9.375,0.0156,0.332,-0.2617
5.223576,0.3892260925073821,0.1581535835503182,0.07507802711287231,0.904352687156104,1.3906,2.0,8.7305,-0.498,1.0137,-1.4668,23.4375,-14.1875,-9.375,0.0156,0.332,-0.2617
5.242379,0.3965914753348485,0.15044769401493807,0.07776505269680407,0.9022379340486517,0.8359,2.2617,8.9062,-0.498,1.0137,-1.4668,24.25,-12.75,-8.9375,0.0156,0.332,-0.2617
5.269064,0.40171797588517105,0.14504203058966963,0.07964028359921867,0.9006902366748417,0.6523,2.6992,9.2383,-0.3027,1.2656,-1.2344,24.625,-12.75,-8.0625,0.0156,0.332,-0.2617
5.275872,0.4052919292705555,0.1412526787410308,0.08095006525173531,0.8995739101109891,0.4531,2.4414,9.1836,-0.3027,1.2656,-1.2344,26.4375,-11.625,-8.9375,0.0156,0.332,-0.2617
5.285875,0.4077864523546445,0.13859758949620074,0.08186546763771213,0.8987763696661782,0.5469,2.3477,9.0195,-0.3027,1.2656,-1.2344,26.4375,-11.625,-8.9375,-0.4688,0.0195,-0.1445
5.287260,0.40952903430594195,0.13673781770745722,0.08250552870716733,0.8982102075804949,0.8438,2.3828,8.9336,-0.3027,1.2656,-1.2344,26.4375,-11.625,-8.9375,-0.2266,-0.0586,-0.3242
5.300340,0.4107470713821037,0.13543539990668904,0.08295321320346712,0.8978100357104284,1.0078,2.4023,8.9375,-0.3027,1.2656,-1.2344,29.0,-10.875,-5.8125,-0.2266,-0.0586,-0.3242
5.323412,0.4115988235297112,0.13452343128513594,0.08326641446434392,0.8975280269309048,0.0977,2.0703,8.7852,-0.2617,1.4258,-1.2578,29.0,-10.875,-5.8125,-0.2266,-0.0586,-0.3242
5.346181,0.42931378887543253,0.11061384010180605,0.09088119434660696,0.8917369890127285,-0.1602,1.8086,8.7969,-0.2617,1.4258,-1.2578,29.0,-10.875,-5.8125,-0.2266,-0.0586,-0.3242
5.347675,0.4414715878754264,0.0938032189819264,0.09616171288072498,0.8871621712985871,-0.9531,2.0859,9.1367,-0.2617,1.4258,-1.2578,30.125,-8.6875,-4.9375,-0.2266,-0.0586,-0.3242
5.350225,0.452570670974194,0.07725160866415008,0.10102466543699089,0.882613161983274,-1.1562,2.2422,9.0898,-0.2617,1.4258,-1.2578,30.125,-8.6875,-4.9375,-0.2266,-0.0586,-0.3242
5.366999,0.46022302446227015,0.06564232255904513,0.10440302606137951,0.8791961450058127,-1.0391,2.1836,9.1133,-0.3164,1.4844,-1.1172,30.125,-8.6875,-4.9375,-0.2266,-0.0586,-0.3242
5.369905,0.46552103086738456,0.0575064093564567,0.10675471123119346,0.8766907176040132,-0.8398,2.4414,9.207,-0.3164,1.4844,-1.1172,30.8125,-8.375,-5.3125,-0.2266,-0.0586,-0.3242
5.386625,0.4692004569910919,0.05180732815263442,0.10839424322574728,0.8748814890855522,-0.582,2.6328,9.3438,-0.3164,1.4844,-1.1172,30.8125,-8.375,-5.3125,-0.2266,-0.0586,-0.3242
5.390503,0.47176160522055444,0.047816273552097596,0.10953859060435356,0.8735879400448066,-0.6953,2.4219,9.082,-0.3867,1.5391,-1.1582,30.8125,-8.375,-5.3125,-0.2266,-0.0586,-0.3242
5.401118,0.47354727501326865,0.045021786170593214,0.11033798070251508,0.8726692082983154,-1.0039,2.0195,8.8672,-0.5332,1.584,-1.1582,30.8125,-8.375,-5.3125,-0.2266,-0.0586,-0.3242
5.414337,0.4747937289218132,0.043065308044064436,0.1108967351375133,0.8720196146620957,-1.7109,1.7891,9.1367,-0.5332,1.584,-1.1582,31.625,-6.1875,-3.6875,-0.2266,-0.0586,-0.3242
5.421490,0.47566451697853374,0.041695619797684304,0.11128745881330208,0.8715617270670751,-1.7109,1.7891,9.1367,-0.7754,1.6289,-1.0938,31.625,-6.1875,-3.6875,-0.2266,-0.0586,-0.3242
5.430050,0.47627321802416334,0.040736767595395774,0.11156076584536612,0.8712396530707163,-2.4219,1.457,8.75,-0.7754,1.6289,-1.0938,31.625,-6.1875,-3.6875,-0.2266,-0.0586,-0.3242
5.443224,0.4766988905449745,0.04006553878960022,0.11175198235389999,0.8710134412250267,-2.4219,1.457,8.75,-0.791,1.6504,-1.0645,32.75,-6.5,-2.3125,-0.2266,-0.0586,-0.3242
5.449400,0.4769966556365592,0.03959566400329025,0.11188578534967636,0.8708547209152412,-2.1328,1.5703,9.1641,-0.791,1.6504,-1.0645,32.4375,-4.75,-0.625,-0.2266,-0.0586,-0.3242
5.467554,0.4772049899797718,0.039266745186827746,0.11197942345364074,0.8707434346487082,-2.5547,0.9688,9.4336,-0.791,1.6504,-1.0645,32.4375,-4.75,-0.625,-0.2266,-0.0586,-0.3242
5.469694,0.4773507741415241,0.039036499290793884,0.11204495824366387,0.8706654452094577,-2.8594,0.918,9.3633,-0.6719,1.7227,-0.8965,32.4375,-4.75,-0.625,-0.2266,-0.0586,-0.3242
5.479677,0.4774527984278504,0.03887532612369785,0.11209082669023326,0.8706108090668819,-3.3594,0.6328,9.1758,-0.6719,1.7227,-0.8965,33.5625,-1.875,0.375,-0.2266,-0.0586,-0.3242
5.489705,0.4775242032339136,0.03876250459845068,0.11212293165144933,0.8705725425034697,-3.625,0.8125,9.2148,-0.6719,1.7227,-0.8965,33.8125,-5.4375,0.3125,-0.2266,-0.0586,-0.3242
5.500137,0.4775741805350206,0.03868352951876841,0.11214540363858091,0.8705457455372544,-3.8008,2.0312,8.9102,-0.6719,1.7227,-0.8965,33.8125,-5.4375,0.3125,-0.2266,-0.0586,-0.3242
5.512332,0.47760916161371303,0.03862824705381071,0.11216113327406625,0.8705269826116093,-3.4141,2.4727,9.0586,-0.584,1.6504,-0.7188,33.8125,-5.4375,0.3125,-0.2266,-0.0586,-0.3242
5.524108,0.47763364684040527,0.03858954944031902,0.11217214362951454,0.8705138461124486,-3.4141,2.4727,9.0586,-0.8965,1.6934,-0.625,34.625,-3.25,2.0625,-0.2109,1.4648,0.0273
5.533594,0.47765078572035063,0.0385624612129039,0.11217985067411161,0.8705046493779738,-3.043,1.5312,8.9805,-0.8965,1.6934,-0.625,34.625,-3.25,2.0625,0.1719,1.1836,0.1133
5.549736,0.49671455227019945,-0.01621381376180262,0.12051789768271311,0.8593527809604458,-3.043,1.5312,8.9805,-0.8965,1.6934,-0.625,35.375,-2.1875,2.0625,0.1719,1.1836,0.1133
5.558116,0.5090322354819897,-0.05460144521753908,0.1261106918056991,0.8497063956642037,-4.2969,0.4219,8.8281,-0.8965,1.6934,-0.625,34.25,-3.9375,3.75,0.1719,1.1836,0.1133
