Time(s),smooth_qw,smooth_qx,smooth_qy,smooth_qz,ax,ay,az,gx,gy,gz,mx,my,mz,lx,ly,lz
0.000757,0.9295196602288416,0.25090534170009704,-0.0026135973093760105,-0.2702459617894795,-9.6484,2.0469,1.1562,0.0391,0.0,0.0156,6.5,-36.1875,-11.5,-0.0977,-0.0391,0.1953
0.000926,0.7828210733062133,0.4233641011533982,-0.004410042720347897,-0.4559984172839726,-9.6133,2.0742,1.1289,0.0391,-0.0293,0.0098,6.4375,-37.25,-11.0,-0.0977,-0.0391,0.1953
0.001062,0.6307100708680453,0.5279872286581283,-0.005499866965188836,-0.5686862442005256,-9.5898,2.1328,1.1367,0.0391,-0.0293,0.0098,6.875,-37.25,-11.0625,-0.0977,-0.0391,0.1953
0.001175,0.5028244404145338,0.5881123767447554,-0.006126170591091201,-0.6334460391188302,-9.5898,2.1602,1.168,0.0391,-0.0293,0.0098,6.875,-37.25,-11.0625,-0.0977,-0.0391,0.1953
0.001276,0.4045293518350833,0.6220968994055274,-0.006724942824009409,-0.6703030854754664,-9.5742,2.1602,1.1953,0.0391,-0.0293,0.0098,6.875,-37.25,-11.0625,-0.0977,-0.0391,0.1953
0.001389,0.33223749452462226,0.6414685142920487,-0.007128027392873819,-0.6914373316718153,-9.5742,2.125,1.1367,0.0391,-0.0293,0.0098,6.875,-37.25,-11.0625,-0.0977,-0.0391,0.1953
0.001496,0.2801982698307023,0.6527055268514058,-0.007445714510450746,-0.7038529577524972,-9.5312,2.0938,1.1289,0.0508,-0.0469,0.0078,6.875,-37.25,-11.0625,-0.0977,-0.0391,0.1953
0.001595,0.24320845521987652,0.6594217285056856,-0.007655209540824261,-0.7113044559476773,-9.5469,2.0742,1.0898,0.0664,-0.0469,0.0156,6.875,-37.25,-11.0625,-0.0977,-0.0391,0.1953
0.001709,0.2169601166698367,0.6634584827713513,-0.00806549424143561,-0.7160210173004622,-9.5547,2.0938,1.0898,0.0664,-0.0469,0.0156,6.875,-37.25,-11.0625,-0.0977,-0.0391,0.1953
0.001820,0.19839330337613065,0.665963581714455,-0.008499325570995312,-0.7190690971460248,-9.6602,2.125,1.0508,0.0664,-0.0469,0.0156,6.875,-37.25,-11.0625,-0.0977,-0.0391,0.1953
0.001940,0.18535143699233378,0.6675746161745009,-0.008801243244624614,-0.7210488990087244,-9.5703,2.1328,1.082,0.1152,-0.0527,0.043,6.875,-37.25,-11.0625,-0.0977,-0.0391,0.1953
0.002026,0.176201821894993,0.6686322482264284,-0.00901167916594328,-0.7223590687678582,-9.5,2.0938,1.1016,0.123,-0.0566,0.0508,6.875,-37.25,-11.0625,-0.0977,-0.0391,0.1953
0.002110,0.16978776736276419,0.6693381666956235,-0.009158525603228015,-0.723239002036868,-9.5352,2.0742,1.0898,0.123,-0.0566,0.0508,5.3125,-36.5625,-11.0625,-0.0977,-0.0391,0.1953
0.002195,0.16529358394048208,0.6698154160610439,-0.009261088202666698,-0.7238367024131782,-9.4219,2.1133,1.0117,0.123,-0.0566,0.0508,5.3125,-36.5625,-11.0625,0.0938,-0.1016,-0.0586
0.002260,0.16182120272077047,0.6699843658160594,-0.01026312286781973,-0.7244511827729017,-9.375,2.125,1.043,0.123,-0.0566,0.0508,5.3125,-36.5625,-11.0625,0.0938,-0.1016,-0.0586
0.002325,0.15938917305421935,0.6700972649087609,-0.010964483950051979,-0.72487552529148,-9.3789,2.1055,1.1016,0.0996,-0.0488,0.041,5.3125,-36.5625,-11.0625,0.0938,-0.1016,-0.0586
0.002386,0.15768608681796834,0.6701736647574217,-0.011455405065318527,-0.7251697255018529,-9.418,2.0938,1.082,0.0996,-0.0488,0.041,5.3125,-38.0,-10.625,0.1445,-0.1094,-0.0352
0.002447,0.15649359760848777,0.6702258562260466,-0.011799035130738132,-0.7253742746497143,-9.4375,2.1445,1.0703,0.0996,-0.0488,0.041,5.3125,-38.0,-10.625,0.1445,-0.1094,-0.0352
0.002511,0.1556586905904683,0.6702617590363003,-0.012039569953343501,-0.7255167780090024,-9.4375,2.1445,1.0703,0.0996,-0.0488,0.041,5.3125,-38.0,-10.625,0.1172,-0.0508,-0.0469
0.002586,0.15507417211590843,0.670286581813546,-0.012207942120031939,-0.7256161971266023,-9.4531,2.2383,1.043,0.0996,-0.0488,0.041,5.3125,-38.0,-10.625,0.1172,-0.0508,-0.0469
0.002655,0.15466496601622964,0.6703038063398228,-0.012325802193564836,-0.7256856275921613,-9.4688,2.2773,1.043,0.0996,-0.0488,0.041,6.0625,-37.625,-11.0,0.1172,-0.0508,-0.0469
0.002720,0.15437849897831443,0.6703157893771005,-0.012408304492986364,-0.7257341493581287,-9.4609,2.3359,1.0234,-0.0273,-0.0215,-0.0898,6.0625,-37.625,-11.0,0.1172,-0.0508,-0.0469
0.002789,0.15357325962988638,0.6700936800103421,-0.012645674013932209,-0.7261059157351509,-9.5,2.3359,0.957,-0.0273,-0.0215,-0.0898,6.0625,-37.625,-11.0,0.1172,-0.0508,-0.0469
0.002866,0.1530095170534697,0.6699378494884023,-0.012811824048583468,-0.7263657637020532,-9.4883,2.3164,0.957,-0.0273,-0.0215,-0.0898,5.6875,-36.5625,-10.625,0.1172,-0.0508,-0.0469
0.002933,0.15243873855254297,0.6697556184686287,-0.01268844968394565,-0.726655933549594,-9.4492,2.3828,0.9453,-0.0273,-0.0215,-0.0898,5.6875,-36.5625,-10.625,0.1172,-0.0508,-0.0469
0.002999,0.15203914668835686,0.6696278723675069,-0.012602083014826961,-0.72685885694991,-9.4492,2.3828,0.9453,-0.0273,-0.0215,-0.0898,5.6875,-36.5625,-10.625,0.1016,0.25,-0.1719
0.003065,0.15175940836548268,0.6695383594142679,-0.012541623863065858,-0.7270008080575198,-9.4531,2.4961,0.918,-0.0273,-0.0215,-0.0898,5.6875,-36.5625,-10.625,0.1016,0.25,-0.1719
0.003128,0.15156357902500983,0.6694756556723854,-0.012499301078870833,-0.7271001275255692,-9.4727,2.4688,0.918,-0.0273,-0.0215,-0.0898,5.6875,-36.5625,-10.625,0.0586,0.3359,-0.1992
0.003207,0.1510050089854172,0.6692451911968006,-0.012259551646189297,-0.7274325155742671,-9.4961,2.582,0.918,-0.0273,-0.0215,-0.0898,5.6875,-36.5625,-10.625,0.0586,0.3359,-0.1992
0.003274,0.1510050089854172,0.6692451911968006,-0.012259551646189297,-0.7274325155742671,-9.543,2.543,0.9648,0.0254,-0.0215,-0.0039,5.6875,-36.5625,-10.625,0.0586,0.3359,-0.1992
0.003339,0.1510050089854172,0.6692451911968006,-0.012259551646189297,-0.7274325155742671,-9.5469,2.4883,1.0117,0.0254,-0.0215,-0.0039,5.3125,-37.25,-10.125,0.0586,0.3359,-0.1992
0.003402,0.1510050089854172,0.6692451911968006,-0.012259551646189297,-0.7274325155742671,-9.5469,2.4883,1.0117,0.0254,-0.0215,-0.0039,5.3125,-37.25,-10.125,-0.0273,0.3242,-0.0898
0.003467,0.1510050089854172,0.6692451911968006,-0.012259551646189297,-0.7274325155742671,-9.5273,2.4883,1.043,0.0254,-0.0215,-0.0039,5.3125,-37.25,-10.125,-0.0273,0.3242,-0.0898
0.003533,0.1510050089854172,0.6692451911968006,-0.012259551646189297,-0.7274325155742671,-9.5781,2.4688,1.1172,0.0254,-0.0215,-0.0039,5.3125,-37.25,-10.125,-0.0273,0.3242,-0.0898
0.003595,0.1510050089854172,0.6692451911968006,-0.012259551646189297,-0.7274325155742671,-9.5273,2.3516,1.1016,0.0254,-0.0215,-0.0039,6.0625,-38.625,-10.625,-0.0273,0.3242,-0.0898
0.003659,0.1510050089854172,0.6692451911968006,-0.012259551646189297,-0.7274325155742671,-9.5273,2.4102,1.1367,0.0254,-0.0215,-0.0039,6.0625,-38.625,-10.625,-0.0273,0.3242,-0.0898
0.003724,0.15070476492233786,0.6691772225676967,-0.012751792650765098,-0.7275488371308679,-9.4922,2.3047,1.1016,0.0918,0.0078,0.123,6.0625,-38.625,-10.625,-0.0273,0.3242,-0.0898
0.003792,0.15049456092847613,0.6691295045439754,-0.013096361499697194,-0.727630111110823,-9.5273,2.3438,1.1289,0.0918,0.0078,0.123,6.0625,-38.625,-10.625,0.0156,0.0078,0.0391
0.003874,0.15034740156610477,0.6690960332605611,-0.013337560294689911,-0.727686928976114,-9.543,2.3047,1.0312,0.0918,0.0078,0.123,6.0625,-38.625,-10.625,0.0156,0.0078,0.0391
0.003944,0.1502443816586312,0.6690725696609591,-0.013506400132285962,-0.7277266653509155,-9.5117,2.2461,1.1484,0.0547,0.0254,0.1465,6.0625,-38.625,-10.625,0.0156,0.0078,0.0391
0.004010,0.15017226346136361,0.6690561285888554,-0.013624588628619972,-0.7277544631737304,-9.5117,2.2109,1.1016,0.0547,0.0254,0.1465,6.0625,-38.625,-10.625,-0.0117,-0.1133,0.1016
0.004080,0.1501217785156603,0.6690446117003548,-0.013707321070264422,-0.7277739130520503,-9.5234,2.2461,1.2148,0.0547,0.0254,0.1465,6.0625,-38.625,-10.625,-0.0117,-0.1133,0.1016
0.004145,0.15008643788808984,0.6690365458715537,-0.013765234158945748,-0.7277875237862177,-9.5391,2.1797,1.3008,-0.002,0.0371,0.1465,6.0625,-38.625,-10.625,-0.0117,-0.1133,0.1016
0.004210,0.1500616988188305,0.6690308978145665,-0.013805773603374627,-0.727797049274215,-9.5898,2.125,1.3672,-0.002,0.0371,0.1465,5.3125,-37.25,-10.625,-0.0117,-0.1133,0.1016
0.004278,0.15004438112044405,0.6690269431965973,-0.013834151420372377,-0.7278037161389589,-9.6172,2.1328,1.3594,-0.002,0.0371,0.1465,4.5,-37.25,-9.3125,-0.0117,-0.1133,0.1016
0.004458,0.15003225853124733,0.6690241744781567,-0.013854016040468967,-0.7278083824767233,-9.5898,2.2461,1.3477,-0.002,0.0371,0.1465,4.5,-37.25,-9.3125,-0.0117,-0.1133,0.1016
0.004584,0.1500237726004335,0.6690222361325534,-0.013867921380278888,-0.7278116486918313,-9.5586,2.3047,1.3203,-0.002,0.0371,0.1465,4.5,-37.25,-10.5625,-0.0117,-0.1133,0.1016
0.004655,0.1500178323767063,0.6690208791684753,-0.013877655193150509,-0.727813934939401,-9.4453,2.2852,1.168,-0.002,0.0371,0.1465,4.5,-37.25,-10.5625,-0.0117,-0.1133,0.1016
0.004722,0.15001367417483216,0.6690199292314998,-0.013884468915147802,-0.7278155352660389,-9.3672,2.2578,1.1289,-0.002,0.0371,0.1465,4.875,-38.3125,-9.75,-0.0117,-0.1133,0.1016
0.004792,0.15292126557169292,0.6693813640633002,-0.016229307985102533,-0.7268289245366011,-9.3008,2.1719,1.1953,-0.002,0.0371,0.1465,4.875,-38.3125,-9.75,-0.0117,-0.1133,0.1016
0.004881,0.15528697019502483,0.6695759420354382,-0.017840755051991872,-0.7261099931788433,-9.3555,2.125,1.2344,-0.002,0.0371,0.1465,4.875,-38.3125,-9.75,-0.0117,-0.1133,0.1016
0.004950,0.15727420286543922,0.6696873121532737,-0.01890892814516811,-0.7255523285679436,-9.418,2.2188,1.2344,-0.002,0.0371,0.1465,4.875,-38.3125,-9.75,-0.0117,-0.1133,0.1016
0.005018,0.15866478405613646,0.6697631155014203,-0.01965660179645671,-0.7251596192701757,-9.418,2.2188,1.2344,-0.1445,-0.002,0.1113,4.1875,-36.5625,-10.9375,-0.0117,-0.1133,0.1016
0.005086,0.15963795635423328,0.669815121563184,-0.02017995087539099,-0.7248835736854629,-9.4102,2.1797,1.3086,-0.1445,-0.0059,0.0996,4.1875,-36.5625,-10.9375,-0.0117,-0.1133,0.1016
0.005154,0.1612492343458729,0.6697316534660607,-0.020306301206426937,-0.724600476745496,-9.3711,2.2656,1.293,-0.1445,-0.0059,0.0996,4.1875,-36.5625,-10.9375,-0.0117,-0.1133,0.1016
0.005226,0.16237688678462725,0.6696721492620269,-0.020394715143617178,-0.7244011421409554,-9.3633,2.3164,1.2148,-0.1445,-0.0059,0.0996,4.1875,-36.5625,-10.9375,0.0781,-0.3047,0.2461
0.005308,0.16316612685483078,0.6696299686868349,-0.02045658972338404,-0.724261035829314,-9.375,2.3047,1.0625,-0.1445,-0.0059,0.0996,4.1875,-36.5625,-10.9375,0.0781,-0.3047,0.2461
0.005375,0.16371853957443555,0.6696001836360197,-0.02049989463561111,-0.7241626807521577,-9.3984,2.4023,1.0898,-0.1465,-0.0117,0.0234,4.1875,-36.5625,-10.9375,0.0781,-0.3047,0.2461
0.005445,0.16410520278287197,0.6695792072812373,-0.020530204611260164,-0.7240936944172639,-9.4023,2.4297,1.1094,-0.1465,-0.0117,0.0234,4.1875,-38.0,-10.9375,0.0781,-0.3047,0.2461
0.005511,0.1643758554776242,0.6695644616325361,-0.020551419978847744,-0.7240453362819101,-9.4414,2.3164,1.1562,-0.1465,-0.0117,0.0234,4.125,-36.875,-10.125,0.0781,-0.3047,0.2461
0.005581,0.16456530744812553,0.6695541091584831,-0.020566270002953253,-0.7240114522793543,-9.457,2.3438,1.1367,-0.1465,-0.0117,0.0234,4.5625,-38.3125,-11.375,0.0781,-0.3047,0.2461
0.005649,0.16469792194538713,0.6695468474424785,-0.020576664701831587,-0.7239877170618698,-9.4961,2.4414,1.0703,-0.1465,-0.0117,0.0234,5.3125,-38.0,-11.0,0.0781,-0.3047,0.2461
0.005715,0.16479075154187475,0.6695417568784412,-0.02058394086427615,-0.7239710942992754,-9.6211,2.582,1.0312,-0.1465,-0.0117,0.0234,3.4375,-37.625,-11.375,0.0781,-0.3047,0.2461
0.005781,0.16485573224925212,0.6695381898614167,-0.020589034136256804,-0.7239594543446453,-9.625,2.8711,0.8984,-0.0996,-0.0605,-0.0273,3.4375,-37.625,-11.375,0.0781,-0.3047,0.2461
0.005865,0.16697077206498362,0.6688137806723922,-0.018942523506304945,-0.7241892493415915,-9.6484,3.0156,0.832,-0.0996,-0.0605,-0.0273,3.4375,-37.625,-11.375,0.0781,-0.3047,0.2461
0.005933,0.16845053756098516,0.6683036023849034,-0.01778987175865927,-0.7243467621916913,-9.5586,2.9375,0.832,-0.1152,-0.0566,-0.0215,3.4375,-37.625,-11.375,0.0781,-0.3047,0.2461
0.006001,0.16948599598578637,0.6679449638823169,-0.016982972326048465,-0.7244553823665948,-9.5273,2.8242,0.8516,-0.1152,-0.0566,-0.0215,4.5625,-37.625,-11.8125,-0.0859,0.2773,-0.2891
0.006064,0.17087239022003634,0.6673400395695307,-0.015608280949819567,-0.7247180689161961,-9.5312,2.707,0.9258,-0.1152,-0.0566,-0.0215,4.5625,-37.625,-11.8125,-0.0859,0.2773,-0.2891
0.006131,0.17184244441254568,0.6669149018950105,-0.014645947627341732,-0.7249001201177905,-9.5391,2.6406,0.8125,-0.2246,-0.0059,-0.0215,4.5625,-37.625,-11.8125,-0.0859,0.2773,-0.2891
0.006198,0.17252127573111245,0.666616477052484,-0.01397229005763457,-0.7250266595462472,-9.5586,2.6211,0.7852,-0.2246,-0.0059,-0.0215,4.25,-37.25,-13.0625,-0.0859,0.2773,-0.2891
0.006266,0.1729963570021831,0.6664071734410858,-0.01350071729084582,-0.7251147980029566,-9.6211,2.543,0.793,-0.2246,-0.0059,-0.0215,4.5625,-36.5625,-11.4375,-0.0859,0.2773,-0.2891
0.006331,0.17332886517540874,0.666260461593394,-0.013170609644940151,-0.7251762798492124,-9.6602,2.3516,0.8984,-0.2246,-0.0059,-0.0215,4.5625,-36.5625,-11.4375,-0.0859,0.2773,-0.2891
0.006399,0.17356159751277964,0.6661576654157573,-0.012939530520974582,-0.7252192118432444,-9.5742,2.582,0.8984,-0.1934,0.041,0.0117,4.5625,-36.5625,-11.4375,-0.0859,0.2773,-0.2891
0.006458,0.173724499054253,0.6660856599663395,-0.012777772924847802,-0.7252492127087321,-9.6328,2.5625,0.9766,-0.1934,0.041,0.0117,5.0,-37.625,-12.25,-0.0859,0.2773,-0.2891
0.006522,0.17383852495896635,0.6660352324540004,-0.012664541264585173,-0.7252701881123987,-9.6797,2.4492,1.1016,-0.1934,0.041,0.0117,4.5625,-37.25,-11.875,-0.0859,0.2773,-0.2891
0.006586,0.17391834074294707,0.6659999215008644,-0.012585278259467831,-0.7252848585798509,-9.6758,2.707,1.4531,-0.1934,0.041,0.0117,4.5625,-37.25,-11.875,-0.0859,0.2773,-0.2891
0.006650,0.17397421077174535,0.6659751980451833,-0.012529793612542067,-0.7252951218966347,-9.6133,2.707,1.5508,-0.0605,-0.0117,0.0527,4.5625,-37.25,-11.875,-0.0859,0.2773,-0.2891
0.006701,0.17401331938424827,0.6659578887490034,-0.012490954001934798,-0.7253023032901296,-9.4609,2.6016,1.5,-0.0605,-0.0117,0.0527,4.5625,-37.625,-11.375,-0.0859,0.2773,-0.2891
0.006757,0.1740406952778544,0.6659457708032185,-0.012463766035037745,-0.7253073288425619,-9.2031,2.5078,1.4141,-0.0605,-0.0117,0.0527,4.1875,-37.625,-11.375,-0.0859,0.2773,-0.2891
0.006810,0.17405985838241886,0.6659372875162715,-0.012444734295913295,-0.7253108460402803,-9.0703,2.2109,1.043,-0.0605,-0.0117,0.0527,4.1875,-37.625,-11.375,-0.0859,0.2773,-0.2891
0.006880,0.17407327257704003,0.6659313488461687,-0.012431411967519655,-0.7253133077468905,-9.1094,2.4219,0.7656,-0.1602,0.0117,0.0527,4.1875,-37.625,-11.375,-0.0859,0.2773,-0.2891
0.006936,0.17408266254596583,0.6659271915863404,-0.012422086261209652,-0.7253150307830082,-9.1562,2.6133,0.7656,-0.1602,0.0117,0.0527,4.1875,-37.9375,-11.75,-0.0859,0.2773,-0.2891
0.006982,0.1740892355557687,0.6659242814041092,-0.012415558213909323,-0.7253162368334696,-9.2734,2.5938,0.8516,-0.1602,0.0117,0.0527,4.25,-35.4375,-12.6875,-0.0859,0.2773,-0.2891
0.007030,0.17409383668896863,0.6659222442225591,-0.01241098854408437,-0.7253170810341252,-9.4609,2.4492,1.1094,-0.1602,0.0117,0.0527,4.25,-35.4375,-12.6875,-0.0859,0.2773,-0.2891
0.007082,0.17409705750272766,0.6659208181656483,-0.012407789749655139,-0.7253176719589934,-9.4609,2.4492,1.1094,-0.1602,0.0117,0.0527,5.0,-37.25,-12.25,-0.0859,0.2773,-0.2891
0.007133,0.17409931208774287,0.6659198199088361,-0.012405550575741124,-0.7253180855997393,-9.4219,2.2109,1.2734,-0.1602,0.0117,0.0527,3.9375,-37.9375,-13.5,-0.0859,0.2773,-0.2891
0.007187,0.1741008903085224,0.665919121119098,-0.012403983141567399,-0.7253183751456815,-9.3555,2.3359,1.3203,-0.1602,0.0117,0.0527,4.1875,-37.25,-11.75,-0.0859,0.2773,-0.2891
0.007240,0.17410199507120136,0.6659186319602399,-0.012402885928959446,-0.725318577827056,-9.4141,2.1914,1.3008,-0.1602,0.0117,0.0527,4.1875,-37.25,-11.75,-0.0859,0.2773,-0.2891
0.007294,0.17410276841089006,0.6659182895452695,-0.012402117874061952,-0.7253187197039688,-9.3633,2.4414,1.2344,-0.1875,0.0078,0.0293,4.1875,-37.25,-11.75,-0.0859,0.2773,-0.2891
0.007348,0.1741033097528004,0.6659180498523765,-0.012401580231387514,-0.7253188190180182,-9.4961,2.3047,1.2344,-0.1602,0.0078,0.0195,4.1875,-37.25,-11.75,-0.0859,0.2773,-0.2891
0.007445,0.17410368869505627,0.6659178820657718,-0.012401203878545103,-0.7253188885381204,-9.4961,2.3047,1.2344,-0.1602,0.0078,0.0195,4.1875,-37.25,-11.75,-0.0703,-0.2891,0.0312
0.007553,0.1741039539566926,0.6659177646140971,-0.012400940429477194,-0.7253189372024381,-9.5,2.4219,1.1562,-0.1602,0.0078,0.0195,4.1875,-37.25,-11.75,-0.0703,-0.2891,0.0312
0.007612,0.18017424979769914,0.6651748250607364,-0.008021169468532048,-0.7245794315709025,-9.4727,2.6133,1.2031,-0.1602,0.0078,0.0195,4.1875,-37.25,-11.75,-0.0703,-0.2891,0.0312
0.007660,0.18447953411663268,0.664639611904794,-0.00483501674827009,-0.7240152694468528,-9.4883,2.793,1.2812,-0.1602,0.0078,0.0195,4.1875,-37.25,-11.75,-0.0703,-0.2891,0.0312
0.007717,0.18749008878329473,0.6642533697644226,-0.0026045730546783706,-0.723607727683891,-9.457,2.6992,1.5508,-0.1602,0.0078,0.0195,4.625,-36.1875,-12.625,-0.0703,-0.2891,0.0312
0.007766,0.18959590740525795,0.6639773231118578,-0.0010432167937806935,-0.7233162641522101,-9.4531,2.4961,1.6172,-0.1602,0.0078,0.0195,4.25,-35.8125,-13.875,-0.0273,-0.082,0.4062
0.007842,0.1910692029400782,0.6637813096386829,4.974878273626909e-05,-0.7231092104151743,-9.5898,2.3047,1.8164,-0.1328,0.0586,0.0332,4.25,-35.8125,-13.875,-0.0273,-0.082,0.4062
0.007910,0.1921001270401881,0.6636427378059881,0.0008148312951057373,-0.7229627886679068,-9.5781,2.0273,1.7969,-0.1328,0.0586,0.0332,4.25,-36.875,-13.875,-0.0273,-0.082,0.4062
0.007958,0.19282158648409944,0.6635450699114662,0.0013503923944463857,-0.7228595661830336,-9.5234,2.1445,1.5898,-0.1328,0.0586,0.0332,4.25,-36.875,-13.875,-0.1562,-0.5508,0.5938
0.008015,0.19482595594972243,0.663624428612305,0.002805286849130875,-0.7222448303746885,-9.5039,2.3438,1.3203,-0.1328,0.0586,0.0332,4.25,-36.875,-13.875,-0.1562,-0.5508,0.5938
0.008064,0.19646741829455336,0.6636745635597612,0.00394368572219125,-0.7217486228427167,-9.4492,2.5156,1.1875,-0.1328,0.0586,0.0332,4.25,-36.875,-13.875,-0.1562,-0.5508,0.5938
0.008112,0.1978016838767955,0.6637272643635872,0.004800689004774253,-0.7213304137363213,-9.1523,2.5352,1.082,-0.1328,0.0586,0.0332,4.25,-36.875,-13.875,-0.1562,-0.5508,0.5938
0.008161,0.19873537261180493,0.6637630923985535,0.005400596271730517,-0.7210365055961216,-9.0742,2.9766,1.1172,0.0527,0.0332,0.0723,4.25,-36.875,-13.875,-0.1562,-0.5508,0.5938
0.008210,0.1993888119941254,0.6637876514631571,0.005820535651387068,-0.7208301996873665,-9.1289,3.1562,1.3984,0.127,0.0293,0.084,4.25,-36.875,-13.875,-0.1562,-0.5508,0.5938
0.008258,0.19984615197930972,0.6638045878073853,0.006114496837768497,-0.7206855053859144,-9.2539,2.7383,1.7422,0.127,0.0293,0.084,3.9375,-37.9375,-13.0625,-0.1562,-0.5508,0.5938
0.008307,0.2001662586192975,0.6638163183558898,0.006320272578672968,-0.7205840815264487,-9.2617,2.4297,1.9141,0.127,0.0293,0.084,4.25,-36.875,-13.5,-0.1562,-0.5508,0.5938
0.008355,0.20039031918198597,0.6638244685857188,0.006464317844359114,-0.7205130168705053,-9.5508,2.2773,1.8359,0.127,0.0293,0.084,4.25,-36.875,-13.5,-0.1562,-0.5508,0.5938
0.008405,0.2005471555810542,0.6638301438123203,0.006565151214808789,-0.7204632380239739,-9.4141,2.6406,1.1875,-0.1895,0.0801,0.0566,4.25,-36.875,-13.5,-0.1562,-0.5508,0.5938
0.008454,0.20065693876258411,0.6638341018254346,0.006635735810911404,-0.7204283761695502,-9.4141,2.6406,1.1875,-0.1895,0.0801,0.0566,4.25,-36.875,-13.5,-0.0117,-0.0156,0.0156
0.008502,0.2007337863131179,0.663836865274099,0.006685145923222994,-0.7204039645639398,-9.4648,2.457,1.1562,-0.1895,0.0801,0.0566,4.25,-36.875,-13.5,-0.0117,-0.0156,0.0156
0.008551,0.20237306441195516,0.664183882429223,0.007139581472327205,-0.7196206914049642,-9.5469,2.4688,1.2227,-0.1895,0.0801,0.0566,4.25,-36.875,-13.5,-0.0117,-0.0156,0.0156
0.008599,0.20364331628687574,0.6644058014432989,0.007637788462984452,-0.7190521503532034,-9.6328,2.5742,1.2227,-0.1895,0.0801,0.0566,4.25,-36.875,-13.5,-0.0117,-0.0156,0.0156
0.008654,0.20453223017648464,0.6645602629495397,0.007986526457512967,-0.718653212003269,-9.4648,2.7656,1.0508,-0.1895,0.0801,0.0566,3.875,-36.875,-11.75,-0.0508,0.1328,-0.1211
0.008710,0.20515434206622274,0.6646679540401887,0.008230639970358002,-0.7183734845949445,-9.4141,2.6875,1.0898,-0.1895,0.0801,0.0566,4.625,-35.8125,-13.875,-0.0508,0.1328,-0.1211
0.008759,0.20591779457699577,0.6647067773849186,0.008941437346444212,-0.7181105852675351,-9.4727,2.6016,1.1172,-0.1895,0.0801,0.0566,4.625,-35.8125,-13.875,-0.0508,0.1328,-0.1211
0.008806,0.2065993137932449,0.6646946340511656,0.00967885892542281,-0.717916490055528,-9.4727,2.6016,1.1172,-0.1895,0.0801,0.0566,4.625,-35.8125,-13.875,-0.0508,0.1328,-0.1211
0.008872,0.20707624110349332,0.6646857201439715,0.010195039833981435,-0.717780178724602,-9.4414,2.7266,0.9961,-0.1895,0.0801,0.0566,4.625,-35.8125,-13.875,-0.0508,0.1328,-0.1211
0.008926,0.2074100216816583,0.6646792778018819,0.0105563575299789,-0.7176845434328943,-9.4141,2.668,0.8398,-0.1895,0.0801,0.0566,4.3125,-36.1875,-15.1875,-0.0508,0.1328,-0.1211
0.008975,0.20764363328789232,0.6646746689132653,0.010809274220470665,-0.7176174925758646,-9.4219,2.6797,0.8398,-0.0391,-0.0039,0.0117,3.9375,-36.5625,-13.5,-0.0508,0.1328,-0.1211
0.009022,0.20780714353369575,0.6646713940778689,0.010986312215990376,-0.7175705052012946,-9.4219,2.6797,0.8398,-0.0391,-0.0039,0.0117,3.9375,-36.5625,-13.5,-0.0039,0.0703,-0.3555
0.009070,0.20792159137392524,0.6646690778851648,0.011110236386835738,-0.7175375888350712,-9.5273,2.5742,0.9453,-0.0391,-0.0039,0.0117,3.9375,-36.5625,-13.5,-0.0039,0.0703,-0.3555
0.009120,0.20881382626487116,0.6644942567680718,0.011647093646393035,-0.717431887981336,-9.6172,2.5547,1.1289,-0.0391,-0.0039,0.0117,3.9375,-36.5625,-13.5,-0.0039,0.0703,-0.3555
0.009172,0.20956196474188324,0.6643532279437131,0.011903095417259008,-0.7173401478892549,-9.6562,2.5078,1.2227,-0.0391,-0.0039,0.0117,3.9375,-36.5625,-13.5,-0.0039,0.0703,-0.3555
0.009224,0.2102048535030271,0.6642219304424568,0.011932250700983986,-0.7172731474663441,-9.6953,2.4492,1.2617,-0.0391,-0.0039,0.0117,3.9375,-36.5625,-13.5,-0.0039,0.0703,-0.3555
0.009273,0.21065482416637485,0.6641298493008173,0.011952656443144591,-0.7172260608253576,-9.6289,2.4414,1.1758,0.0625,-0.0566,0.1348,3.9375,-36.5625,-13.5,-0.0039,0.0703,-0.3555
0.009323,0.210969778952934,0.6640653076724266,0.011966939038582338,-0.7171930088090113,-9.6289,2.4688,1.0898,0.0762,-0.0605,0.1328,3.9375,-36.5625,-13.5,-0.0039,0.0703,-0.3555
0.009382,0.21119023561736688,0.6640200868821607,0.011976936175998517,-0.7171698275839027,-9.6484,2.4883,1.0039,0.0762,-0.0605,0.1328,3.125,-35.8125,-13.0,-0.0039,0.0703,-0.3555
0.009430,0.21134454984948073,0.6639884118597092,0.011983933852584332,-0.7171535787363528,-9.5742,2.6016,0.8984,0.0762,-0.0605,0.1328,3.125,-35.8125,-13.0,-0.2188,-0.1406,-0.3008
0.009479,0.21205352790405269,0.6637592222713051,0.010788872904591401,-0.7171754292881805,-9.5352,2.582,0.9062,0.0762,-0.0605,0.1328,3.125,-35.8125,-13.0,-0.2188,-0.1406,-0.3008
0.009528,0.2127018479889123,0.6635751152478918,0.009832413432914494,-0.71716756335736,-9.5234,2.5273,0.957,0.0762,-0.0605,0.1328,3.125,-35.8125,-13.0,-0.2188,-0.1406,-0.3008
0.009574,0.2133321454278528,0.6634352297715085,0.009042725510658264,-0.7171201578121439,-9.5039,2.3633,1.1289,0.0762,-0.0605,0.1328,3.125,-35.8125,-13.0,-0.2188,-0.1406,-0.3008
0.009634,0.21395395596339686,0.6633091691009285,0.008429965152736993,-0.7170589840464816,-9.4922,2.1602,1.3984,0.0762,-0.0605,0.1328,3.125,-35.8125,-13.0,-0.2188,-0.1406,-0.3008
0.009687,0.21438912657357678,0.6632206175348024,0.008001026265206346,-0.7170158285996743,-9.457,2.2578,1.4062,-0.041,-0.0156,0.1094,3.125,-35.8125,-13.0,-0.2188,-0.1406,-0.3008
0.009741,0.2146936989950939,0.6631584798948804,0.007700765387646133,-0.7169854561758976,-9.4492,2.3359,1.4844,-0.041,-0.0156,0.1094,4.3125,-36.1875,-15.1875,-0.2188,-0.1406,-0.3008
0.009790,0.21490687698953828,0.6631149092213641,0.007490580653899578,-0.7169641152752436,-9.4062,2.3633,1.4922,-0.041,-0.0156,0.1094,2.8125,-35.4375,-13.8125,-0.2188,-0.1406,-0.3008
0.009890,0.21505609071054907,0.663084373278952,0.00734345005681237,-0.7169491373192511,-9.4062,2.3633,1.4531,-0.041,-0.0156,0.1094,2.8125,-35.4375,-13.8125,-0.2188,-0.1406,-0.3008
0.009952,0.21516053516559605,0.663062980211501,0.007240457833211507,-0.7169386334622109,-9.3828,2.3633,1.4141,-0.041,-0.0156,0.1094,3.9375,-36.875,-13.875,-0.2188,-0.1406,-0.3008
0.010047,0.21523364388804775,0.6630479962632523,0.007168362756393201,-0.7169312712982688,-9.3594,2.3164,1.2734,-0.041,-0.0156,0.1094,2.8125,-36.1875,-14.6875,-0.2188,-0.1406,-0.3008
0.010110,0.21528481890939968,0.663037503168504,0.007117895859177928,-0.7169261131370241,-9.3633,2.3164,1.2031,-0.041,-0.0156,0.1094,3.5625,-36.1875,-13.5,-0.2188,-0.1406,-0.3008
0.010161,0.21532064095602868,0.6630301558670412,0.007082568800679097,-0.7169225001409816,-9.3984,2.3633,1.168,-0.041,-0.0156,0.1094,3.5625,-36.1875,-13.5,-0.2188,-0.1406,-0.3008
0.010220,0.2153457162033845,0.6630250117007161,0.007057839703223969,-0.7169199699205206,-9.3633,2.3711,1.2344,-0.041,-0.0156,0.1094,3.5625,-36.1875,-13.5,-0.2188,-0.1406,-0.3008
0.010269,0.21674163873394678,0.6627763993666225,0.006680476615829855,-0.7167327798515455,-9.3203,2.4492,1.2812,-0.041,-0.0156,0.1094,3.5625,-36.1875,-13.5,-0.2188,-0.1406,-0.3008
0.010318,0.2177184994517524,0.6626015084709166,0.00641631454403415,-0.7166008141749598,-9.3203,2.4492,1.2812,-0.041,-0.0156,0.1094,3.5625,-36.1875,-13.5,0.0312,-0.3789,0.0312
0.010373,0.21840216060983642,0.6624786626387659,0.0062313976690842425,-0.7165079814436104,-9.3125,2.4219,1.3008,-0.041,-0.0156,0.1094,3.125,-36.5625,-13.0,0.0312,-0.3789,0.0312
0.010422,0.2190642025464684,0.6622531963501725,0.006222054775509034,-0.7165143858437388,-9.3125,2.6133,1.1875,-0.041,-0.0156,0.1094,3.125,-36.5625,-13.0,0.0312,-0.3789,0.0312
0.010470,0.219527573685036,0.6620951752632415,0.006215512860255717,-0.7165186603885362,-9.3164,2.668,1.1094,-0.041,-0.0156,0.1094,3.125,-36.5625,-13.0,0.0312,-0.3789,0.0312
0.010518,0.21985190600884538,0.6619844647438663,0.006210932578684238,-0.7165215503936764,-9.3125,2.6797,1.1562,-0.041,-0.0156,0.1094,3.5625,-36.1875,-14.3125,0.0469,-0.1328,-0.1016
0.010569,0.22013398015248575,0.6617720485080206,0.006627581931496447,-0.7166274218542467,-9.2578,2.5938,1.1289,-0.041,-0.0156,0.1094,3.5625,-36.1875,-14.3125,0.0469,-0.1328,-0.1016
0.010623,0.22033138936865712,0.6616232368984318,0.006919232085481586,-0.7167013991072336,-9.2461,2.6797,1.0625,-0.041,-0.0156,0.1094,2.75,-37.25,-12.5625,0.0469,-0.1328,-0.1016
0.010672,0.2204695544240671,0.6615190102166264,0.007123384329784926,-0.7167531179491013,-9.2461,2.7266,1.082,-0.041,-0.0156,0.1094,2.75,-37.25,-12.5625,0.1328,-0.082,-0.2031
0.010725,0.22050701758619573,0.6613282970799577,0.007686310801119608,-0.7169117514051733,-9.2734,2.793,1.0703,-0.0273,-0.0176,-0.0898,2.75,-37.25,-12.5625,0.1328,-0.082,-0.2031
0.010780,0.22053319176186406,0.6611946494696883,0.00808035451974433,-0.7170226319404545,-9.3008,2.7656,1.0625,-0.0273,-0.0176,-0.0898,4.0,-37.25,-15.125,0.1328,-0.082,-0.2031
0.010828,0.22055148911906636,0.661101023665191,0.00835618204550859,-0.7171001683013479,-9.3359,2.7656,1.1016,-0.0273,-0.0176,-0.0898,4.0,-37.25,-15.125,0.0625,0.0117,-0.2109
0.010899,0.22035727026948737,0.660924399402643,0.009059377912988635,-0.7173141148656322,-9.3398,2.7852,1.1094,-0.0254,-0.0039,-0.0977,4.0,-37.25,-15.125,0.0625,0.0117,-0.2109
0.010950,0.2202212364954479,0.6608005222150362,0.009551614301014541,-0.7174636182420654,-9.3711,2.7188,1.1484,-0.0254,-0.0039,-0.0977,4.0,-37.25,-15.5625,0.0625,0.0117,-0.2109
0.011006,0.22012597326138908,0.6607136903839117,0.009896179810115745,-0.7175681437049477,-9.3789,2.7383,1.1172,-0.0254,-0.0039,-0.0977,4.0,-37.25,-15.5625,0.0234,0.0352,-0.1719
0.011055,0.21978606342309548,0.6605832178847337,0.010707222692216432,-0.717780784053355,-9.3789,2.7266,1.1484,-0.0215,0.0059,-0.1211,4.0,-37.25,-15.5625,0.0234,0.0352,-0.1719
0.011109,0.21954801967936569,0.6604915596478774,0.01127494163368228,-0.7179292739399475,-9.4219,2.793,1.1367,-0.0215,0.0059,-0.1211,4.0,-37.25,-15.5625,-0.0352,0.1289,-0.1523
0.011158,0.2193813373056231,0.660427238651194,0.011672338022397094,-0.7180330408934161,-9.3672,2.7656,1.1758,-0.0215,0.0059,-0.1211,4.0,-37.25,-15.5625,-0.0352,0.1289,-0.1523
0.011208,0.218877583391036,0.6603910200013022,0.012550673731236205,-0.7182052525423578,-9.3867,2.707,1.1875,-0.0215,0.0059,-0.1211,4.0,-37.25,-15.5625,-0.0352,0.1289,-0.1523
0.011258,0.21852481727662862,0.6603652518664876,0.013165502271826142,-0.7183253496233145,-9.3867,2.707,1.1875,-0.0215,0.0059,-0.1211,4.0,-37.25,-15.5625,0.0195,0.082,-0.1016
0.011311,0.2182778132049039,0.660347010782548,0.013595879065793608,-0.7184091965485039,-9.3711,2.7266,1.2617,-0.0215,0.0059,-0.1211,4.0,-37.25,-15.5625,0.0195,0.082,-0.1016
0.011362,0.21810487709513734,0.6603341423592614,0.013897141333428474,-0.7184677811041581,-9.4453,2.6211,1.2812,-0.0215,0.0059,-0.1211,4.0,-37.25,-15.5625,0.0195,0.082,-0.1016
0.011410,0.21741058928166773,0.6603153205719625,0.0147678070641714,-0.7186781094208029,-9.4648,2.6406,1.2734,-0.0215,0.0059,-0.1211,4.0,-37.25,-15.5625,0.0195,0.082,-0.1016
0.011459,0.21683856191074988,0.660314224581023,0.015407546616939927,-0.71883848699947,-9.418,2.668,1.2539,-0.0215,0.0059,-0.1211,4.0,-37.25,-15.5625,0.0195,0.082,-0.1016
0.011509,0.21643804247071163,0.6603131579215243,0.015855359487033847,-0.7189504258449867,-9.4102,2.7266,1.2344,0.0762,0.0,-0.043,4.0,-37.25,-15.5625,0.0195,0.082,-0.1016
0.011559,0.21615762946821213,0.6603122645188536,0.0161688264224698,-0.719028623631067,-9.4141,2.7266,1.2344,0.0801,0.002,-0.0273,4.0,-37.25,-15.5625,0.0195,0.082,-0.1016
0.011607,0.21596131594239906,0.6603115672321974,0.01638825250760778,-0.7190832840328951,-9.4141,2.6992,1.2734,0.0801,0.002,-0.0273,3.9375,-36.5,-14.3125,0.0195,0.082,-0.1016
0.011657,0.21582388433800562,0.6603110438971206,0.01654185057825752,-0.7191215081168111,-9.3867,2.6797,1.2734,0.0801,0.002,-0.0273,4.75,-36.1875,-16.0,0.0195,0.082,-0.1016
0.011709,0.2157276761453632,0.6603106602970045,0.016649369272248044,-0.7191482462927179,-9.4375,2.6406,1.2812,0.0801,0.002,-0.0273,4.75,-36.1875,-16.0,0.0195,0.082,-0.1016
0.011758,0.2157276761453632,0.6603106602970045,0.016649369272248044,-0.7191482462927179,-9.4375,2.6133,1.2812,0.0293,0.0195,0.0117,4.75,-36.1875,-16.0,0.0195,0.082,-0.1016
0.011804,0.2157276761453632,0.6603106602970045,0.016649369272248044,-0.7191482462927179,-9.4141,2.6211,1.3008,0.0293,0.0195,0.0117,4.3125,-36.5,-14.6875,0.0195,0.082,-0.1016
0.011885,0.2157276761453632,0.6603106602970045,0.016649369272248044,-0.7191482462927179,-9.4219,2.6016,1.293,0.0293,0.0195,0.0117,4.25,-36.875,-13.0625,0.0195,0.082,-0.1016
0.011938,0.2157276761453632,0.6603106602970045,0.016649369272248044,-0.7191482462927179,-9.4492,2.5547,1.3203,0.0293,0.0195,0.0117,4.3125,-36.875,-15.1875,-0.0312,-0.0156,0.0703
0.011989,0.2157276761453632,0.6603106602970045,0.016649369272248044,-0.7191482462927179,-9.4844,2.5078,1.3086,0.0293,0.0195,0.0117,4.3125,-36.875,-15.1875,-0.0312,-0.0156,0.0703
0.012034,0.2157276761453632,0.6603106602970045,0.016649369272248044,-0.7191482462927179,-9.4531,2.4688,1.3594,0.0293,0.0195,0.0117,4.3125,-36.875,-15.1875,-0.0742,-0.2266,0.1328
0.012081,0.2157276761453632,0.6603106602970045,0.016649369272248044,-0.7191482462927179,-9.457,2.4766,1.3867,0.0293,0.0195,0.0117,4.6875,-35.125,-14.375,-0.0742,-0.2266,0.1328
0.018545,0.2157276761453632,0.6603106602970045,0.016649369272248044,-0.7191482462927179,-9.457,2.4766,1.3867,0.0293,0.0195,0.0117,5.0,-37.25,-13.5,-0.0742,-0.2266,0.1992
0.046014,0.2157276761453632,0.6603106602970045,0.016649369272248044,-0.7191482462927179,-9.4102,2.4688,1.3867,0.0293,0.0195,0.0117,5.0,-37.25,-13.5,-0.0742,-0.2266,0.1992
0.054878,0.2157276761453632,0.6603106602970045,0.016649369272248044,-0.7191482462927179,-9.4219,2.4961,1.3789,0.0293,0.0195,0.0117,2.0625,-36.1875,-14.25,-0.0742,-0.2266,0.1992
0.055002,0.2157276761453632,0.6603106602970045,0.016649369272248044,-0.7191482462927179,-9.4414,2.4766,1.3203,0.0293,0.0195,0.0117,2.0625,-36.1875,-14.25,-0.0742,-0.2266,0.1992
0.061558,0.2157276761453632,0.6603106602970045,0.016649369272248044,-0.7191482462927179,-9.4414,2.4766,1.3281,-0.0059,0.0117,0.0098,2.0625,-36.1875,-14.25,-0.0742,-0.2266,0.1992
0.091317,0.2157276761453632,0.6603106602970045,0.016649369272248044,-0.7191482462927179,-9.4727,2.4883,1.3203,-0.002,0.0098,0.0098,2.0625,-36.1875,-14.25,-0.0742,-0.2266,0.1992
0.091574,0.2157276761453632,0.6603106602970045,0.016649369272248044,-0.7191482462927179,-9.4961,2.4883,1.2734,-0.002,0.0098,0.0098,5.0,-37.25,-13.9375,-0.0742,-0.2266,0.1992
0.091906,0.2157276761453632,0.6603106602970045,0.016649369272248044,-0.7191482462927179,-9.5273,2.4688,1.293,-0.002,0.0098,0.0098,5.0,-37.25,-13.9375,-0.0742,-0.2266,0.1992
0.104755,0.2157276761453632,0.6603106602970045,0.016649369272248044,-0.7191482462927179,-9.5039,2.4766,1.3086,0.0195,0.002,0.0156,5.0,-37.25,-13.9375,-0.0742,-0.2266,0.1992
0.120541,0.2153600983998676,0.6606096864213988,0.016544614194804026,-0.7189861931668546,-9.4883,2.5273,1.2539,0.0332,0.0,0.0195,5.0,-37.25,-13.9375,-0.0742,-0.2266,0.1992
0.122448,0.21510275960926523,0.6608189024901457,0.01647128282828588,-0.7188726436318109,-9.4883,2.4766,1.2734,0.0332,0.0,0.0195,4.3125,-37.625,-14.6875,-0.0742,-0.2266,0.1992
0.133211,0.2149226054748481,0.6609653037647494,0.01641994945374364,-0.7187931038449186,-9.4883,2.5156,1.293,0.0332,0.0,0.0195,3.9375,-36.5625,-13.875,-0.0742,-0.2266,0.1992
0.141569,0.21479648915284655,0.6610677602567889,0.01638401536621782,-0.7187373989414793,-9.4414,2.5273,1.2812,0.0332,0.0,0.0195,3.9375,-36.5625,-13.875,-0.0742,-0.2266,0.1992
0.158650,0.21470820351962713,0.6611394679084681,0.016358861127272643,-0.7186983922186697,-9.4219,2.4883,1.293,0.0273,0.0,0.0312,3.9375,-36.5625,-13.875,-0.0742,-0.2266,0.1992
0.163514,0.21464640145878486,0.6611896574824151,0.016341252959066542,-0.7186710809757191,-9.418,2.4961,1.293,0.0273,0.0,0.0312,4.625,-36.5,-13.875,-0.0742,-0.2266,0.1992
0.171432,0.21460313893918437,0.661224787382843,0.016328927131637888,-0.7186519598850982,-9.4102,2.4766,1.2734,0.0273,0.0,0.0312,4.625,-36.5,-13.875,-0.0742,-0.2266,0.1992
0.190656,0.21460313893918437,0.661224787382843,0.016328927131637888,-0.7186519598850982,-9.4258,2.4297,1.3008,-0.0098,0.0059,0.0195,4.625,-36.5,-13.875,-0.0742,-0.2266,0.1992
0.191074,0.21460313893918437,0.661224787382843,0.016328927131637888,-0.7186519598850982,-9.4453,2.4414,1.293,-0.0156,0.002,0.0176,4.625,-36.5,-13.875,-0.0742,-0.2266,0.1992
0.200718,0.21460313893918437,0.661224787382843,0.016328927131637888,-0.7186519598850982,-9.4219,2.4766,1.2344,-0.0156,0.002,0.0176,3.5,-37.625,-13.0,-0.0742,-0.2266,0.1992
0.210383,0.21460313893918437,0.661224787382843,0.016328927131637888,-0.7186519598850982,-9.4141,2.4883,1.2422,-0.0156,0.002,0.0176,3.9375,-37.9375,-13.5,-0.0742,-0.2266,0.1992
0.226368,0.21460313893918437,0.661224787382843,0.016328927131637888,-0.7186519598850982,-9.4258,2.5078,1.2734,-0.0156,0.002,0.0176,3.9375,-37.9375,-13.5,-0.0742,-0.2266,0.1992
0.230939,0.21460313893918437,0.661224787382843,0.016328927131637888,-0.7186519598850982,-9.418,2.5078,1.2617,0.002,-0.0039,0.0195,3.9375,-37.9375,-13.5,-0.0742,-0.2266,0.1992
0.246133,0.21460313893918437,0.661224787382843,0.016328927131637888,-0.7186519598850982,-9.3867,2.5156,1.2539,0.002,-0.0039,0.0195,4.25,-37.625,-13.0625,-0.0742,-0.2266,0.1992
0.255528,0.21460313893918437,0.661224787382843,0.016328927131637888,-0.7186519598850982,-9.4141,2.5156,1.2422,0.002,-0.0039,0.0195,2.4375,-36.5,-15.5,-0.0742,-0.2266,0.1992
0.261011,0.21460313893918437,0.661224787382843,0.016328927131637888,-0.7186519598850982,-9.4453,2.4883,1.2148,0.002,-0.0039,0.0195,2.4375,-36.5,-15.5,-0.0742,-0.2266,0.1992
0.270381,0.21460313893918437,0.661224787382843,0.016328927131637888,-0.7186519598850982,-9.4531,2.5352,1.1758,0.002,-0.0039,0.0176,2.4375,-36.5,-15.5,-0.0742,-0.2266,0.1992
0.280978,0.21460313893918437,0.661224787382843,0.016328927131637888,-0.7186519598850982,-9.4258,2.5352,1.1953,0.002,-0.0039,0.0176,3.1875,-35.8125,-14.3125,-0.0742,-0.2266,0.1992
0.292868,0.21460313893918437,0.661224787382843,0.016328927131637888,-0.7186519598850982,-9.4492,2.5352,1.2031,0.002,-0.0039,0.0176,3.5,-36.1875,-12.5625,-0.0742,-0.2266,0.1992
0.325093,0.21460313893918437,0.661224787382843,0.016328927131637888,-0.7186519598850982,-9.4375,2.543,1.2344,0.002,-0.0039,0.0176,3.5,-36.1875,-12.5625,-0.0742,-0.2266,0.1992
0.347199,0.21460313893918437,0.661224787382843,0.016328927131637888,-0.7186519598850982,-9.418,2.5625,1.2227,0.002,-0.0039,0.0176,3.5,-36.1875,-12.5625,-0.0742,-0.2266,0.1992
0.347320,0.21460313893918437,0.661224787382843,0.016328927131637888,-0.7186519598850982,-9.4219,2.582,1.2031,0.002,-0.0039,0.0176,1.625,-36.5625,-13.4375,-0.0742,-0.2266,0.1992
0.347401,0.21460313893918437,0.661224787382843,0.016328927131637888,-0.7186519598850982,-9.4102,2.6016,1.2148,0.002,-0.0039,0.0176,3.5,-36.5625,-13.0,0.0156,0.0156,-0.0352
0.364761,0.21460313893918437,0.661224787382843,0.016328927131637888,-0.7186519598850982,-9.4062,2.6602,1.1875,0.002,-0.0039,0.0176,3.5,-36.5625,-13.0,0.0156,0.0156,-0.0352
0.365359,0.21460313893918437,0.661224787382843,0.016328927131637888,-0.7186519598850982,-9.4023,2.5742,1.1289,0.0215,0.0,0.0234,3.5,-36.5625,-13.0,0.0156,0.0156,-0.0352
0.377731,0.21460313893918437,0.661224787382843,0.016328927131637888,-0.7186519598850982,-9.3867,2.582,1.1484,0.0215,0.0,0.0234,4.25,-36.1875,-13.5,0.0352,-0.0039,-0.0938
0.391480,0.21460313893918437,0.661224787382843,0.016328927131637888,-0.7186519598850982,-9.3633,2.5625,1.1758,0.0215,0.0,0.0234,4.625,-37.25,-13.875,0.0352,-0.0039,-0.0938
0.400687,0.21523167756467834,0.6615457538170033,0.015600211324286352,-0.7181846378098217,-9.3516,2.5273,1.2148,0.002,0.0137,0.0312,4.625,-37.25,-13.875,0.0352,-0.0039,-0.0938
0.412700,0.21567149345631004,0.6617699385744851,0.015090100290068482,-0.7178569803120137,-9.418,2.582,1.1758,0.002,0.0137,0.0312,4.0,-36.1875,-14.6875,0.0352,-0.0039,-0.0938
0.424573,0.2159792850560963,0.661926626664173,0.014733018334894273,-0.7176273597838851,-9.418,2.582,1.1758,0.002,0.0137,0.0312,4.0,-36.1875,-14.6875,-0.0039,-0.0117,-0.0586
0.434382,0.21619469988862927,0.6620361899570573,0.01448305926517758,-0.7174664981178772,-9.4141,2.5938,1.168,0.002,0.0137,0.0312,4.0,-36.1875,-14.6875,-0.0039,-0.0117,-0.0586
0.451395,0.21652367992710814,0.6622273504248934,0.014127971185852881,-0.7171979035177252,-9.4258,2.5742,1.168,0.002,0.0137,0.0312,4.0,-36.1875,-14.6875,-0.0039,-0.0117,-0.0586
0.462629,0.21675400909652714,0.6623613014576019,0.013849415822026015,-0.7170100414592275,-9.4414,2.5938,1.1758,0.002,0.0137,0.0312,4.0,-36.1875,-14.6875,-0.0039,-0.0117,-0.0586
0.471478,0.21675400909652714,0.6623613014576019,0.013849415822026015,-0.7170100414592275,-9.418,2.5547,1.1875,0.0059,0.0156,0.0195,4.0,-36.1875,-14.6875,-0.0039,-0.0117,-0.0586
0.480376,0.21675400909652714,0.6623613014576019,0.013849415822026015,-0.7170100414592275,-9.3984,2.5742,1.1953,0.0039,0.0137,0.0176,4.0,-36.1875,-14.6875,-0.0039,-0.0117,-0.0586
0.491711,0.21675400909652714,0.6623613014576019,0.013849415822026015,-0.7170100414592275,-9.4219,2.5742,1.1953,0.0039,0.0137,0.0176,4.25,-36.875,-13.875,-0.0039,-0.0117,-0.0586
0.501329,0.21675400909652714,0.6623613014576019,0.013849415822026015,-0.7170100414592275,-9.4258,2.5742,1.1875,0.0039,0.0137,0.0176,4.25,-36.5625,-13.0625,-0.0039,-0.0117,-0.0586
0.514586,0.21675400909652714,0.6623613014576019,0.013849415822026015,-0.7170100414592275,-9.375,2.5742,1.1484,0.0039,0.0137,0.0176,4.25,-36.5625,-13.0625,-0.0039,-0.0117,-0.0586
0.530959,0.21675400909652714,0.6623613014576019,0.013849415822026015,-0.7170100414592275,-9.4023,2.5625,1.168,0.0078,0.0117,0.0117,4.25,-36.5625,-13.0625,-0.0039,-0.0117,-0.0586
0.531082,0.21675400909652714,0.6623613014576019,0.013849415822026015,-0.7170100414592275,-9.4062,2.5625,1.168,0.0078,0.0117,0.0117,3.5625,-36.1875,-14.6875,-0.0039,-0.0117,-0.0586
0.555066,0.21675400909652714,0.6623613014576019,0.013849415822026015,-0.7170100414592275,-9.3828,2.6133,1.2422,0.0078,0.0117,0.0117,3.5625,-36.1875,-14.6875,-0.0039,-0.0117,-0.0586
0.556965,0.21675400909652714,0.6623613014576019,0.013849415822026015,-0.7170100414592275,-9.4062,2.6406,1.2031,0.0137,0.0156,0.0059,3.5625,-36.1875,-14.6875,-0.0039,-0.0117,-0.0586
0.582250,0.21675400909652714,0.6623613014576019,0.013849415822026015,-0.7170100414592275,-9.4062,2.6406,1.2031,0.0098,0.0156,0.0059,3.5625,-36.1875,-14.6875,-0.0039,-0.0117,-0.0586
0.582482,0.21675400909652714,0.6623613014576019,0.013849415822026015,-0.7170100414592275,-9.4062,2.6406,1.2031,0.0098,0.0156,0.0059,3.5625,-36.1875,-14.6875,0.0,0.0312,0.0156
0.584210,0.21675400909652714,0.6623613014576019,0.013849415822026015,-0.7170100414592275,-9.4492,2.6484,1.168,0.0098,0.0156,0.0059,3.5625,-36.1875,-14.6875,0.0,0.0312,0.0156
0.597442,0.21675400909652714,0.6623613014576019,0.013849415822026015,-0.7170100414592275,-9.457,2.668,1.1953,0.0098,0.0156,0.0059,3.5625,-36.1875,-14.6875,0.0,0.0312,0.0156
0.614818,0.21675400909652714,0.6623613014576019,0.013849415822026015,-0.7170100414592275,-9.4727,2.6406,1.2031,0.0098,0.0156,0.0059,3.5625,-36.1875,-14.6875,0.0,0.0312,0.0156
0.619017,0.21675400909652714,0.6623613014576019,0.013849415822026015,-0.7170100414592275,-9.5273,2.6016,1.1953,0.0098,0.0156,0.0059,3.5625,-36.1875,-13.875,0.0,0.0312,0.0156
0.632786,0.21675400909652714,0.6623613014576019,0.013849415822026015,-0.7170100414592275,-9.4531,2.6016,1.2031,0.0098,0.0156,0.0059,3.5625,-36.1875,-13.875,0.0,0.0312,0.0156
0.640561,0.21675400909652714,0.6623613014576019,0.013849415822026015,-0.7170100414592275,-9.3984,2.6016,1.2539,-0.0137,0.0156,0.0176,3.5625,-36.1875,-13.875,0.0,0.0312,0.0156
0.671715,0.21675400909652714,0.6623613014576019,0.013849415822026015,-0.7170100414592275,-9.4492,2.5625,1.2344,-0.0137,0.0156,0.0176,3.9375,-37.9375,-13.875,0.0,0.0312,0.0156
0.671873,0.21675400909652714,0.6623613014576019,0.013849415822026015,-0.7170100414592275,-9.4492,2.5625,1.2344,-0.0137,0.0156,0.0176,3.9375,-37.9375,-13.875,-0.0234,-0.0547,0.0547
0.675654,0.21675400909652714,0.6623613014576019,0.013849415822026015,-0.7170100414592275,-9.4453,2.5547,1.1953,-0.0137,0.0156,0.0176,3.9375,-37.9375,-13.875,-0.0234,-0.0547,0.0547
0.694238,0.21675400909652714,0.6623613014576019,0.013849415822026015,-0.7170100414592275,-9.4531,2.543,1.2422,-0.0137,0.0156,0.0176,3.9375,-37.9375,-13.875,-0.0234,-0.0547,0.0547
0.701673,0.21675400909652714,0.6623613014576019,0.013849415822026015,-0.7170100414592275,-9.5273,2.5625,1.2031,-0.0137,0.0156,0.0176,4.25,-36.5625,-13.0625,-0.0234,-0.0547,0.0547
0.731770,0.21675400909652714,0.6623613014576019,0.013849415822026015,-0.7170100414592275,-9.5117,2.5625,1.168,-0.0137,0.0156,0.0176,5.0625,-36.1875,-13.9375,-0.0898,-0.0547,-0.0039
0.731947,0.21675400909652714,0.6623613014576019,0.013849415822026015,-0.7170100414592275,-9.5039,2.5938,1.1758,-0.0137,0.0156,0.0176,5.0625,-36.1875,-13.9375,-0.0898,-0.0547,-0.0039
0.739106,0.21675400909652714,0.6623613014576019,0.013849415822026015,-0.7170100414592275,-9.5039,2.5352,1.1875,-0.0039,0.0078,0.0234,5.0625,-36.1875,-13.9375,-0.0898,-0.0547,-0.0039
0.761204,0.21675400909652714,0.6623613014576019,0.013849415822026015,-0.7170100414592275,-9.4844,2.5547,1.2344,-0.0039,0.0078,0.0234,5.0625,-36.1875,-13.9375,-0.0898,-0.0547,-0.0039
0.761581,0.21675400909652714,0.6623613014576019,0.013849415822026015,-0.7170100414592275,-9.4609,2.582,1.168,0.0078,0.0039,0.0234,5.0625,-36.1875,-13.9375,-0.0898,-0.0547,-0.0039
0.780954,0.21675400909652714,0.6623613014576019,0.013849415822026015,-0.7170100414592275,-9.4648,2.5273,1.1484,0.0098,0.0039,0.0215,5.0625,-36.1875,-13.9375,-0.0898,-0.0547,-0.0039
0.781059,0.21675400909652714,0.6623613014576019,0.013849415822026015,-0.7170100414592275,-9.4375,2.5078,1.1875,0.0098,0.0039,0.0215,4.3125,-36.1875,-14.75,-0.0898,-0.0547,-0.0039
0.793145,0.21675400909652714,0.6623613014576019,0.013849415822026015,-0.7170100414592275,-9.4062,2.5273,1.168,0.0098,0.0039,0.0215,4.3125,-36.1875,-14.75,0.0234,-0.0977,-0.0039
0.805648,0.21675400909652714,0.6623613014576019,0.013849415822026015,-0.7170100414592275,-9.3672,2.543,1.1562,0.0098,0.0039,0.0215,4.3125,-36.1875,-14.75,0.0234,-0.0977,-0.0039
0.859382,0.21675400909652714,0.6623613014576019,0.013849415822026015,-0.7170100414592275,-9.3828,2.543,1.1758,0.0098,0.0039,0.0215,4.3125,-36.1875,-14.75,0.0703,-0.0742,-0.0156
0.859495,0.21675400909652714,0.6623613014576019,0.013849415822026015,-0.7170100414592275,-9.4023,2.5273,1.1758,0.0098,0.0039,0.0215,3.9375,-36.875,-13.5,0.0391,-0.0898,-0.0039
0.859576,0.21675400909652714,0.6623613014576019,0.013849415822026015,-0.7170100414592275,-9.4102,2.543,1.2031,0.0098,0.0039,0.0215,3.9375,-36.875,-13.5,0.0391,-0.0898,-0.0039
0.859651,0.21675400909652714,0.6623613014576019,0.013849415822026015,-0.7170100414592275,-9.3828,2.5352,1.2031,0.0098,0.0039,0.0215,3.9375,-36.875,-13.5,0.0391,-0.0898,-0.0039
0.872924,0.21675400909652714,0.6623613014576019,0.013849415822026015,-0.7170100414592275,-9.3359,2.5352,1.1758,0.0098,0.0039,0.0215,3.9375,-36.875,-13.5,0.0703,-0.0664,0.043
0.873379,0.21675400909652714,0.6623613014576019,0.013849415822026015,-0.7170100414592275,-9.3672,2.582,1.1758,0.0098,0.0039,0.0215,4.625,-36.5625,-13.5,0.0703,-0.0664,0.043
0.891199,0.21675400909652714,0.6623613014576019,0.013849415822026015,-0.7170100414592275,-9.3672,2.582,1.1758,0.0098,0.0039,0.0215,4.625,-36.5625,-13.5,0.0625,-0.0195,0.0039
0.895556,0.21675400909652714,0.6623613014576019,0.013849415822026015,-0.7170100414592275,-9.4023,2.6133,1.1484,0.0098,0.0039,0.0215,4.625,-36.5625,-13.5,0.0625,-0.0195,0.0039
0.910671,0.21675400909652714,0.6623613014576019,0.013849415822026015,-0.7170100414592275,-9.4023,2.6133,1.1484,0.0098,0.0039,0.0215,4.25,-35.8125,-14.3125,0.0508,0.0078,-0.0156
0.923985,0.21675400909652714,0.6623613014576019,0.013849415822026015,-0.7170100414592275,-9.3281,2.6211,1.1172,0.0098,0.0039,0.0215,4.25,-35.8125,-14.3125,0.0508,0.0078,-0.0156
0.937780,0.21675400909652714,0.6623613014576019,0.013849415822026015,-0.7170100414592275,-9.3164,2.6328,1.082,0.0098,0.0039,0.0215,3.9375,-36.875,-13.0625,0.0508,0.0078,-0.0156
0.948694,0.21675400909652714,0.6623613014576019,0.013849415822026015,-0.7170100414592275,-9.3125,2.6602,1.082,0.0098,0.0039,0.0215,3.5625,-37.25,-14.3125,0.0508,0.0078,-0.0156
0.961054,0.21675400909652714,0.6623613014576019,0.013849415822026015,-0.7170100414592275,-9.3672,2.6406,1.082,0.0098,0.0039,0.0215,3.5625,-37.25,-14.3125,0.0508,0.0078,-0.0156
0.975374,0.21675400909652714,0.6623613014576019,0.013849415822026015,-0.7170100414592275,-9.3867,2.6797,1.1172,-0.0078,0.0137,-0.0039,3.5625,-37.25,-14.3125,0.0508,0.0078,-0.0156
0.996615,0.21675400909652714,0.6623613014576019,0.013849415822026015,-0.7170100414592275,-9.4102,2.6992,1.0703,-0.0078,0.0137,-0.0039,3.5625,-37.25,-14.3125,0.0273,0.0938,-0.0469
1.001062,0.21675400909652714,0.6623613014576019,0.013849415822026015,-0.7170100414592275,-9.4062,2.6875,1.1094,-0.0078,0.0137,-0.0039,3.1875,-36.1875,-13.4375,0.0273,0.0938,-0.0469
1.002719,0.21675400909652714,0.6623613014576019,0.013849415822026015,-0.7170100414592275,-9.4062,2.6797,1.1094,-0.0078,0.0137,-0.0039,3.1875,-36.1875,-13.4375,0.0078,0.1016,-0.0469
1.015393,0.21675400909652714,0.6623613014576019,0.013849415822026015,-0.7170100414592275,-9.4258,2.707,1.1094,-0.0078,0.0137,-0.0039,3.1875,-36.1875,-13.4375,0.0078,0.1016,-0.0469
1.025408,0.21675400909652714,0.6623613014576019,0.013849415822026015,-0.7170100414592275,-9.5,2.707,1.1484,-0.0078,0.0137,-0.0039,3.5625,-36.1875,-14.3125,0.0078,0.1016,-0.0469
1.034681,0.21675400909652714,0.6623613014576019,0.013849415822026015,-0.7170100414592275,-9.4844,2.7188,1.168,-0.0078,0.0137,-0.0039,3.1875,-36.5625,-13.875,0.0078,0.1016,-0.0469
1.052477,0.21675400909652714,0.6623613014576019,0.013849415822026015,-0.7170100414592275,-9.4844,2.7188,1.168,-0.0078,0.0137,-0.0039,2.4375,-36.875,-14.625,-0.0781,0.1172,0.0195
1.064252,0.21675400909652714,0.6623613014576019,0.013849415822026015,-0.7170100414592275,-9.4531,2.6875,1.1172,-0.0078,0.0137,-0.0039,2.4375,-36.875,-14.625,-0.0781,0.1172,0.0195
1.072328,0.21675400909652714,0.6623613014576019,0.013849415822026015,-0.7170100414592275,-9.4453,2.6797,1.1562,0.0117,0.0117,0.0117,3.1875,-35.4375,-13.5,-0.0781,0.1172,0.0195
1.080805,0.21675400909652714,0.6623613014576019,0.013849415822026015,-0.7170100414592275,-9.3828,2.6602,1.1172,0.0117,0.0117,0.0117,3.9375,-36.875,-14.3125,-0.0781,0.1172,0.0195
1.089644,0.21675400909652714,0.6623613014576019,0.013849415822026015,-0.7170100414592275,-9.4141,2.6797,1.1172,0.0117,0.0117,0.0117,2.0,-35.4375,-13.4375,-0.0781,0.1172,0.0195
1.099911,0.21675400909652714,0.6623613014576019,0.013849415822026015,-0.7170100414592275,-9.4102,2.6992,1.168,0.0117,0.0117,0.0117,3.5625,-37.625,-14.6875,-0.0781,0.1172,0.0195
1.113375,0.21675400909652714,0.6623613014576019,0.013849415822026015,-0.7170100414592275,-9.4375,2.6992,1.1367,0.0117,0.0117,0.0117,5.375,-36.5625,-13.5625,-0.0781,0.1172,0.0195
1.142936,0.21675400909652714,0.6623613014576019,0.013849415822026015,-0.7170100414592275,-9.4375,2.6992,1.1367,0.0117,0.0117,0.0117,4.625,-37.625,-13.875,-0.0781,0.1172,0.0195
1.143063,0.21675400909652714,0.6623613014576019,0.013849415822026015,-0.7170100414592275,-9.457,2.668,1.1367,0.0117,0.0117,0.0117,3.5625,-36.1875,-13.875,-0.0781,0.1172,0.0195
1.143143,0.21675400909652714,0.6623613014576019,0.013849415822026015,-0.7170100414592275,-9.3984,2.6875,1.1289,0.0117,0.0117,0.0117,3.5625,-36.1875,-13.875,-0.0781,0.1172,0.0195
1.151499,0.21675400909652714,0.6623613014576019,0.013849415822026015,-0.7170100414592275,-9.4023,2.6992,1.1367,0.0117,0.0117,0.0117,3.1875,-36.1875,-13.875,-0.0781,0.1172,0.0195
1.166937,0.21675400909652714,0.6623613014576019,0.013849415822026015,-0.7170100414592275,-9.3867,2.6875,1.168,0.0117,0.0117,0.0117,3.1875,-36.1875,-13.875,-0.0781,0.1172,0.0195
1.208548,0.21675400909652714,0.6623613014576019,0.013849415822026015,-0.7170100414592275,-9.3867,2.6992,1.168,0.002,0.0137,0.0078,3.1875,-36.1875,-13.875,-0.0781,0.1172,0.0195
1.208671,0.21675400909652714,0.6623613014576019,0.013849415822026015,-0.7170100414592275,-9.4141,2.6992,1.1562,0.002,0.0176,0.0117,3.1875,-36.1875,-13.875,-0.0781,0.1172,0.0195
1.208749,0.21675400909652714,0.6623613014576019,0.013849415822026015,-0.7170100414592275,-9.3867,2.6602,1.1367,0.002,0.0176,0.0117,4.25,-35.8125,-13.875,-0.0781,0.1172,0.0195
1.208823,0.21675400909652714,0.6623613014576019,0.013849415822026015,-0.7170100414592275,-9.4102,2.668,1.168,0.002,0.0176,0.0117,4.25,-35.8125,-13.875,0.0156,0.0117,0.0195
1.217357,0.21675400909652714,0.6623613014576019,0.013849415822026015,-0.7170100414592275,-9.418,2.668,1.2031,0.002,0.0176,0.0117,4.25,-35.8125,-13.875,0.0156,0.0117,0.0195
1.227920,0.21675400909652714,0.6623613014576019,0.013849415822026015,-0.7170100414592275,-9.3789,2.6602,1.1875,0.002,0.0176,0.0117,4.25,-35.8125,-13.875,0.0156,0.0117,0.0195
1.245591,0.21675400909652714,0.6623613014576019,0.013849415822026015,-0.7170100414592275,-9.3633,2.707,1.1367,0.002,0.0176,0.0117,4.25,-35.8125,-13.875,0.0156,0.0117,0.0195
1.263756,0.21675400909652714,0.6623613014576019,0.013849415822026015,-0.7170100414592275,-9.3711,2.6602,1.1484,-0.0039,0.0137,0.0156,4.25,-35.8125,-13.875,0.0156,0.0117,0.0195
1.268027,0.21675400909652714,0.6623613014576019,0.013849415822026015,-0.7170100414592275,-9.3633,2.668,1.1367,-0.0078,0.0137,0.0156,4.25,-35.8125,-13.875,0.0156,0.0117,0.0195
1.277782,0.21675400909652714,0.6623613014576019,0.013849415822026015,-0.7170100414592275,-9.3359,2.6797,1.1562,-0.0078,0.0137,0.0156,2.75,-35.8125,-13.0,0.0156,0.0117,0.0195
1.297725,0.21675400909652714,0.6623613014576019,0.013849415822026015,-0.7170100414592275,-9.3281,2.668,1.1367,-0.0078,0.0137,0.0156,2.8125,-35.4375,-15.125,0.0156,0.0117,0.0195
1.299322,0.21675400909652714,0.6623613014576019,0.013849415822026015,-0.7170100414592275,-9.3594,2.6484,1.1367,-0.0078,0.0137,0.0156,2.8125,-35.4375,-15.125,0.0156,0.0117,0.0195
1.300059,0.21675400909652714,0.6623613014576019,0.013849415822026015,-0.7170100414592275,-9.3516,2.6133,1.1172,-0.0078,0.0137,0.0156,4.25,-37.25,-14.3125,0.0156,0.0117,0.0195
1.311796,0.21675400909652714,0.6623613014576019,0.013849415822026015,-0.7170100414592275,-9.3867,2.6875,1.0898,-0.0078,0.0137,0.0156,3.5625,-36.875,-13.4375,0.0156,0.0117,0.0195
1.319408,0.21675400909652714,0.6623613014576019,0.013849415822026015,-0.7170100414592275,-9.4023,2.6875,1.1484,-0.0078,0.0137,0.0156,2.375,-35.8125,-13.4375,0.0156,0.0117,0.0195
1.356277,0.21675400909652714,0.6623613014576019,0.013849415822026015,-0.7170100414592275,-9.3672,2.6992,1.082,-0.0078,0.0137,0.0156,2.375,-35.8125,-13.4375,0.0156,0.0117,0.0195
1.356447,0.21675400909652714,0.6623613014576019,0.013849415822026015,-0.7170100414592275,-9.3633,2.7383,1.0898,-0.0078,0.0098,0.0195,2.375,-35.8125,-13.4375,0.0156,0.0117,0.0195
1.356523,0.21675400909652714,0.6623613014576019,0.013849415822026015,-0.7170100414592275,-9.3789,2.7266,1.0625,-0.0078,0.0098,0.0195,2.8125,-37.25,-14.25,0.0156,0.0117,0.0195
1.365990,0.21675400909652714,0.6623613014576019,0.013849415822026015,-0.7170100414592275,-9.3984,2.7383,1.0508,-0.0078,0.0098,0.0195,2.75,-36.1875,-13.0,0.0156,0.0117,0.0195
1.370490,0.21675400909652714,0.6623613014576019,0.013849415822026015,-0.7170100414592275,-9.4258,2.668,1.082,-0.0078,0.0098,0.0195,2.75,-36.1875,-13.0,0.0156,0.0117,0.0195
1.387104,0.21675400909652714,0.6623613014576019,0.013849415822026015,-0.7170100414592275,-9.4258,2.668,1.082,-0.0078,0.0098,0.0195,1.625,-36.1875,-13.4375,0.0156,0.0117,0.0195
1.393460,0.21675400909652714,0.6623613014576019,0.013849415822026015,-0.7170100414592275,-9.4062,2.6992,1.0508,-0.0078,0.0098,0.0195,1.625,-36.1875,-13.4375,-0.0273,-0.0352,-0.0781
1.417119,0.21675400909652714,0.6623613014576019,0.013849415822026015,-0.7170100414592275,-9.457,2.6211,1.0117,-0.0078,0.0098,0.0195,4.25,-37.9375,-14.3125,-0.0273,-0.0352,-0.0781
1.417480,0.21675400909652714,0.6623613014576019,0.013849415822026015,-0.7170100414592275,-9.4062,2.6328,1.043,-0.0078,0.0098,0.0195,3.1875,-36.1875,-14.6875,-0.0273,-0.0352,-0.0781
1.432042,0.21675400909652714,0.6623613014576019,0.013849415822026015,-0.7170100414592275,-9.4062,2.6328,1.0312,-0.0078,0.0098,0.0195,3.5625,-36.5625,-13.875,-0.0273,-0.0352,-0.0781
1.433581,0.21675400909652714,0.6623613014576019,0.013849415822026015,-0.7170100414592275,-9.4102,2.6328,1.0117,-0.0078,0.0098,0.0195,4.0,-37.25,-14.6875,-0.0273,-0.0352,-0.0781
1.448613,0.21675400909652714,0.6623613014576019,0.013849415822026015,-0.7170100414592275,-9.4219,2.6016,1.1094,-0.0078,0.0098,0.0195,3.1875,-37.9375,-13.4375,-0.0273,-0.0352,-0.0781
1.450546,0.21675400909652714,0.6623613014576019,0.013849415822026015,-0.7170100414592275,-9.4492,2.6602,1.0898,-0.0078,0.0098,0.0195,3.1875,-37.9375,-13.4375,-0.0273,-0.0352,-0.0781
1.468650,0.21675400909652714,0.6623613014576019,0.013849415822026015,-0.7170100414592275,-9.4375,2.6602,1.0703,-0.0078,0.0254,0.0078,3.1875,-37.9375,-13.4375,-0.0273,-0.0352,-0.0781
1.473062,0.21675400909652714,0.6623613014576019,0.013849415822026015,-0.7170100414592275,-9.418,2.7539,1.0703,-0.0039,0.0254,0.0078,3.1875,-37.9375,-13.4375,-0.0273,-0.0352,-0.0781
1.498579,0.21675400909652714,0.6623613014576019,0.013849415822026015,-0.7170100414592275,-9.4219,2.7734,1.0703,-0.0039,0.0254,0.0078,3.1875,-37.9375,-13.4375,-0.0273,0.0508,-0.0156
1.498954,0.21675400909652714,0.6623613014576019,0.013849415822026015,-0.7170100414592275,-9.4258,2.7852,1.0625,-0.0039,0.0254,0.0078,3.1875,-37.9375,-13.4375,-0.0273,0.0703,-0.0078
1.513759,0.21675400909652714,0.6623613014576019,0.013849415822026015,-0.7170100414592275,-9.4062,2.7188,1.1289,-0.0039,0.0254,0.0078,3.1875,-37.9375,-13.4375,-0.0273,0.0703,-0.0078
1.521126,0.21675400909652714,0.6623613014576019,0.013849415822026015,-0.7170100414592275,-9.4102,2.6875,1.1289,-0.0039,0.0254,0.0078,3.625,-36.875,-15.5,-0.0273,0.0703,-0.0078
1.540875,0.21675400909652714,0.6623613014576019,0.013849415822026015,-0.7170100414592275,-9.5078,2.6992,1.1289,-0.0039,0.0254,0.0078,3.625,-36.875,-15.5,-0.0273,0.0703,-0.0078
1.542135,0.21675400909652714,0.6623613014576019,0.013849415822026015,-0.7170100414592275,-9.543,2.6484,1.1094,-0.0039,0.0254,0.0078,3.625,-36.875,-15.5,-0.0273,0.0703,-0.0078
1.560117,0.21675400909652714,0.6623613014576019,0.013849415822026015,-0.7170100414592275,-9.5,2.6602,1.1172,-0.0039,0.0254,0.0078,3.625,-36.875,-15.5,-0.0273,0.0703,-0.0078
1.566757,0.21675400909652714,0.6623613014576019,0.013849415822026015,-0.7170100414592275,-9.4375,2.6797,1.1016,-0.0039,0.0254,0.0078,3.625,-36.875,-15.5,-0.0664,-0.043,0.0469
1.577228,0.21675400909652714,0.6623613014576019,0.013849415822026015,-0.7170100414592275,-9.4375,2.6875,1.1016,-0.0039,0.0254,0.0078,3.1875,-37.625,-14.3125,-0.0664,-0.043,0.0469
1.589130,0.21675400909652714,0.6623613014576019,0.013849415822026015,-0.7170100414592275,-9.4648,2.6875,1.0898,-0.0039,0.0254,0.0078,3.1875,-37.625,-14.3125,-0.0664,-0.043,0.0469
1.597909,0.21675400909652714,0.6623613014576019,0.013849415822026015,-0.7170100414592275,-9.457,2.668,1.082,-0.0039,0.0254,0.0078,3.1875,-37.625,-14.3125,0.0078,-0.0312,0.0078
1.610576,0.21675400909652714,0.6623613014576019,0.013849415822026015,-0.7170100414592275,-9.3984,2.668,1.0898,-0.0039,0.0254,0.0078,3.1875,-37.625,-14.3125,0.0156,-0.0508,0.0273
1.621992,0.21675400909652714,0.6623613014576019,0.013849415822026015,-0.7170100414592275,-9.332,2.6602,1.082,-0.0039,0.0254,0.0078,3.1875,-37.625,-14.3125,0.0156,-0.0508,0.0273
1.634198,0.21675400909652714,0.6623613014576019,0.013849415822026015,-0.7170100414592275,-9.332,2.6484,1.1094,-0.0039,0.0254,0.0078,3.1875,-37.625,-14.3125,0.0156,-0.0508,0.0273
1.642746,0.21675400909652714,0.6623613014576019,0.013849415822026015,-0.7170100414592275,-9.332,2.6484,1.1094,-0.0039,0.0254,0.0078,3.1875,-37.625,-14.3125,0.0156,-0.0508,0.0273
1.695578,0.21675400909652714,0.6623613014576019,0.013849415822026015,-0.7170100414592275,-9.3281,2.6797,1.0625,-0.0039,0.0254,0.0078,3.1875,-37.625,-14.3125,0.0156,-0.0508,0.0273
1.695736,0.21675400909652714,0.6623613014576019,0.013849415822026015,-0.7170100414592275,-9.3711,2.7852,1.0234,-0.0039,0.0254,0.0078,3.1875,-36.875,-13.875,0.0156,-0.0508,0.0273
1.695814,0.21675400909652714,0.6623613014576019,0.013849415822026015,-0.7170100414592275,-9.3711,2.7852,1.0234,-0.0039,0.0254,0.0078,3.5625,-36.875,-13.875,0.0742,-0.0391,0.0078
1.698700,0.21675400909652714,0.6623613014576019,0.013849415822026015,-0.7170100414592275,-9.3125,2.6602,1.0625,-0.0039,0.0254,0.0078,2.8125,-37.25,-14.25,0.0742,-0.0391,0.0078
1.727768,0.21675400909652714,0.6623613014576019,0.013849415822026015,-0.7170100414592275,-9.3359,2.6016,1.0625,-0.0039,0.0254,0.0078,2.8125,-37.25,-14.25,0.0742,-0.0391,0.0078
1.728190,0.22007212470998963,0.6641859439400547,0.014614877854341683,-0.714291045123339,-9.3359,2.6016,1.0625,-0.0332,0.0195,0.0,4.3125,-36.1875,-15.1875,0.0742,-0.0391,0.0078
1.739425,0.22239189795475872,0.665454381812853,0.015150510599496255,-0.7123782502847266,-9.3711,2.6211,1.0039,-0.0332,0.0195,0.0,2.375,-35.8125,-13.8125,0.0742,-0.0391,0.0078
1.741532,0.2240142918791119,0.6663379581356949,0.015525354876893774,-0.7110346587455492,-9.4062,2.6875,1.0039,-0.0332,0.0195,0.0,2.4375,-35.4375,-14.25,0.0742,-0.0391,0.0078
1.756995,0.2251492495809377,0.666954334962876,0.015787695491075303,-0.7100918807861764,-9.4258,2.6992,1.0312,-0.0332,0.0195,0.0,3.1875,-36.875,-14.3125,0.0742,-0.0391,0.0078
1.760694,0.22594336432128478,0.667384754650899,0.015971308353697405,-0.709430830094245,-9.5,2.7383,1.0234,-0.0332,0.0195,0.0,3.1875,-36.875,-14.3125,0.0742,-0.0391,0.0078
1.782293,0.22649906852037358,0.6676855358318049,0.016099824401309432,-0.7089675541621391,-9.4883,2.8711,1.0039,-0.0332,0.0195,0.0,4.25,-36.875,-13.875,0.0742,-0.0391,0.0078
1.783671,0.2268879741456735,0.6678958309379635,0.01618977905095499,-0.7086429970429686,-9.4883,2.8711,1.0039,-0.0332,0.0195,0.0,4.25,-36.875,-13.875,-0.0938,0.168,-0.043
1.800794,0.22716016468424197,0.6680429138384057,0.016252743937270178,-0.7084156782323707,-9.4727,2.8516,0.957,-0.0332,0.0195,0.0,4.25,-36.875,-13.875,-0.0938,0.168,-0.043
1.806019,0.22738203705036544,0.6681498098163653,0.0168069149738316,-0.7082307311026851,-9.4609,2.8594,0.9844,-0.0332,0.0195,0.0,4.25,-36.875,-13.875,-0.0938,0.168,-0.043
1.822403,0.2275372932333347,0.6682244771565629,0.01719483045349289,-0.7081010988005604,-9.4844,2.9453,1.0234,-0.0332,0.0195,0.0,4.25,-36.875,-13.875,-0.0781,0.2422,-0.0234
1.832793,0.2276459458195939,0.6682766659470909,0.017466369083960223,-0.7080102732683797,-9.4648,2.918,0.9961,-0.0332,0.0195,0.0,4.25,-36.875,-13.875,-0.0781,0.2422,-0.0234
1.865049,0.2277823493813991,0.6682842156996974,0.017926473099888648,-0.7079477734403361,-9.4961,2.8984,1.0117,-0.0332,0.0195,0.0,4.25,-36.875,-13.875,-0.0781,0.2422,-0.0234
1.865163,0.22787780018980597,0.6682894073795134,0.018248543632259057,-0.7079039248515969,-9.418,2.8594,1.0117,-0.0332,0.0195,0.0,4.25,-36.875,-13.875,-0.0039,0.1484,-0.0273
1.883140,0.22794460023268712,0.6682929959134039,0.018473991897107796,-0.7078731824707256,-9.375,2.8242,1.0508,-0.0332,0.0195,0.0,4.25,-36.875,-13.875,-0.0039,0.1484,-0.0273
1.900914,0.2281427110813021,0.6682694642973335,0.0186919164801252,-0.7078258533894678,-9.3594,2.832,1.0508,-0.0332,0.0195,0.0,4.25,-36.875,-13.875,-0.0039,0.1484,-0.0273
1.901026,0.22828137742047758,0.6682529564589237,0.018844463681251856,-0.7077926851101833,-9.3359,2.7852,1.0117,-0.0332,0.0195,0.0,4.25,-36.875,-13.875,0.0742,0.0508,-0.0195
1.911511,0.22837843852550466,0.6682413834534519,0.018951246919485482,-0.7077694486886713,-9.3867,2.8398,1.0234,-0.0332,0.0195,0.0,4.25,-36.875,-13.875,0.0742,0.0508,-0.0195
1.927203,0.22859404733953137,0.668226455550641,0.018875801861153344,-0.7077159527149702,-9.3711,2.832,1.0508,-0.0332,0.0195,0.0,4.25,-36.875,-13.875,0.0742,0.0508,-0.0195
1.937725,0.22874496542025394,0.668215984085842,0.018822989899984703,-0.7076784824044754,-9.3125,2.7852,1.0234,-0.0332,0.0195,0.0,4.25,-36.875,-13.875,0.0938,0.0195,-0.0156
1.956195,0.22885060398878962,0.6682086433221467,0.018786021364721985,-0.7076522418849717,-9.3125,2.5625,1.043,-0.0332,0.0195,0.0,4.25,-36.875,-13.875,0.0938,0.0195,-0.0156
1.967987,0.22892454889775288,0.6682034995318066,0.018760143340512285,-0.7076338680046699,-9.3164,2.5938,1.0508,-0.0332,0.0195,0.0,3.5625,-36.5,-14.6875,0.0938,0.0195,-0.0156
1.972535,0.22897630925065798,0.6681998963074365,0.01874202872021378,-0.707621003600182,-9.3242,2.6602,1.043,-0.0332,0.0195,0.0,3.9375,-35.8125,-13.0625,0.0938,0.0195,-0.0156
1.999276,0.22928331010653863,0.6681396174524316,0.018519411512639705,-0.7075843742581748,-9.3008,2.6484,1.0039,-0.0332,0.0195,0.0,3.5625,-37.25,-14.3125,0.0938,0.0195,-0.0156
2.001688,0.22949817084529514,0.6680673065444532,0.018303576396363413,-0.7075886111266955,-9.2539,2.5547,0.9453,-0.0332,0.0195,0.0,3.5625,-37.25,-14.3125,0.0938,0.0195,-0.0156
2.011290,0.22964880958471087,0.6680173763586145,0.018092510567407887,-0.7075923050745019,-9.2305,2.5742,0.9453,-0.0332,0.0195,0.0,3.5625,-37.25,-14.3125,0.0938,0.0195,-0.0156
2.020108,0.22975424720887427,0.6679823974937121,0.017944763684537755,-0.7075948614739525,-9.2344,2.6211,0.9258,-0.0332,0.0195,0.0,3.5625,-37.25,-14.3125,0.0938,0.0195,-0.0156
2.035744,0.22982804889811745,0.6679578986968429,0.017841340467490224,-0.7075966365652863,-9.1992,2.6328,0.9648,-0.0332,0.0195,0.0,3.5625,-37.25,-14.3125,0.0938,0.0195,-0.0156
2.041140,0.22990848891685456,0.6679372016926998,0.01767885025830583,-0.7075941206457546,-9.1992,2.6328,0.9648,-0.0332,0.0195,0.0,3.5625,-37.25,-14.3125,0.0938,0.0195,-0.0156
2.075716,0.22999347864244893,0.6679488863801034,0.017565007031392854,-0.707558305366782,-9.3008,2.7734,1.0117,-0.0332,0.0195,0.0,3.5625,-37.25,-14.3125,0.0938,0.0195,-0.0156
2.078176,0.23005296785612903,0.6679570569881066,0.017485317401408188,-0.7075332258457875,-9.3164,2.7266,1.0312,-0.0332,0.0195,0.0,3.5625,-37.25,-14.3125,0.0469,-0.0312,0.0078
2.087898,0.2300946084099662,0.6679627721454983,0.017429535148879863,-0.7075156659133842,-9.3008,2.8516,1.043,-0.0332,0.0195,0.0,3.5625,-37.25,-14.3125,0.0469,-0.0312,0.0078
2.104267,0.2302750325732738,0.6680304786852765,0.017660583084889842,-0.7073873003708786,-9.2266,2.957,1.1484,-0.0332,0.0195,0.0,3.5625,-37.25,-14.3125,0.0469,-0.0312,0.0078
2.110518,0.23040131416500018,0.6680778304854843,0.017822314667350663,-0.7072973999278858,-9.2461,3.0625,1.2227,-0.0332,0.0195,0.0,3.5625,-37.25,-14.3125,0.1328,0.1992,0.1328
2.118535,0.23048970362544532,0.6681109557302427,0.017935525621696674,-0.7072344478859535,-9.2461,3.0625,1.2227,-0.0332,0.0195,0.0,3.5625,-37.25,-14.3125,0.1055,0.3125,0.207
2.123101,0.23055157239722351,0.6681341330666277,0.01801477259619257,-0.707190370879568,-9.3555,3.1953,1.2734,-0.0332,0.0195,0.0,3.5625,-37.25,-14.3125,0.1055,0.3125,0.207
2.140899,0.2310765649035011,0.6683052357505307,0.018880378747413183,-0.7068346796240121,-9.3398,3.3203,1.3008,-0.0332,0.0195,0.0,3.5625,-37.25,-14.3125,0.1055,0.3125,0.207
2.149505,0.231443897804888,0.6684245382959941,0.01948629058126884,-0.7065851988628478,-9.2852,3.7812,1.5703,-0.0332,0.0195,0.0,4.3125,-36.1875,-14.75,0.1055,0.3125,0.207
2.161336,0.23203662824125046,0.668584176270297,0.020270918816538426,-0.7062175955367676,-8.9883,4.3086,1.8672,-0.0332,0.0195,0.0,4.3125,-36.1875,-14.75,0.1055,0.3125,0.207
2.202007,0.23298054417803485,0.6687842961972852,0.02129917733056301,-0.7056868825757283,-8.9023,4.6719,2.1523,-0.0332,0.0195,0.0,4.3125,-36.1875,-14.75,0.1055,0.3125,0.207
2.202117,0.2340375984215647,0.6689424872722514,0.02234954039688835,-0.7051544861171402,-9.1992,5.6289,2.9102,-0.0332,0.0195,0.0,4.3125,-36.1875,-14.75,0.1055,0.3125,0.207
2.202386,0.2347771869433424,0.6690522147960062,0.02308476362976282,-0.7047807460875245,-9.1992,5.6289,2.9102,-0.4844,0.1426,0.0781,3.625,-36.875,-16.0,0.1055,0.3125,0.207
2.216693,0.2352947273241963,0.6691285309533805,0.023599404394214814,-0.7045186076107864,-9.3203,5.7344,3.2539,-0.4844,0.1426,0.0781,3.625,-36.875,-16.0,0.1055,0.3125,0.207
2.222368,0.23758323343522686,0.6690194700848074,0.025610329483069138,-0.7037835369356649,-9.5469,6.1367,3.4766,-0.4844,0.1426,0.0781,3.625,-36.875,-16.0,0.1055,0.3125,0.207
2.231449,0.23918383492895534,0.6689392112623579,0.02701785998947314,-0.703264857636127,-9.5469,6.1367,3.4766,-0.4844,0.1426,0.0781,3.625,-36.875,-16.0,-0.2227,3.3398,2.4453
2.242799,0.2403035930949905,0.6688811110157442,0.028003074007138546,-0.7028997583710862,-9.7852,6.1562,3.6953,-0.4844,0.1426,0.0781,3.625,-36.875,-16.0,-0.2227,3.3398,2.4453
2.254969,0.24108710110969706,0.6688395003326246,0.02869269759563003,-0.7026431964930803,-9.8242,5.8086,3.6758,-0.4844,0.1426,0.0781,2.875,-35.4375,-15.5,-0.2227,3.3398,2.4453
2.266663,0.24163540080002074,0.668809911861051,0.02917542320463627,-0.7024631161544761,-9.8242,5.8086,3.6758,-0.9668,-0.2676,0.4004,3.6875,-35.0625,-18.0625,-0.2227,3.3398,2.4453
2.313921,0.24951202797092378,0.6660896771573854,0.03350645524181756,-0.7021008526838115,-9.7578,5.7344,3.5898,-0.9668,-0.2676,0.4004,3.6875,-35.0625,-18.0625,-0.2227,3.3398,2.4453
2.314040,0.25501286490059183,0.664150395114568,0.03653658830111011,-0.7018103512485913,-9.6484,6.1445,3.543,-0.7285,-0.4375,0.5488,3.6875,-35.0625,-18.0625,-0.2227,3.3398,2.4453
2.314127,0.258857001510153,0.6627757496897233,0.03865680591756484,-0.7015889179203514,-9.6094,6.3086,3.457,-0.7285,-0.4375,0.5488,1.8125,-34.375,-18.4375,-0.2227,3.3398,2.4453
2.314209,0.2615446792405579,0.6618051153604432,0.040140497472681946,-0.7014250569421866,-9.6836,6.625,3.3516,-0.7285,-0.4375,0.5488,1.75,-34.375,-17.5625,-0.2227,3.3398,2.4453
2.322012,0.26342445886676386,0.6611215701901177,0.04117884586375284,-0.7013060149132012,-9.7891,6.6445,3.1797,-0.7285,-0.4375,0.5488,1.75,-34.375,-17.5625,-0.2227,3.3398,2.4453
2.352905,0.26473951822230946,0.6606410807370775,0.04190557152779847,-0.7012205594596427,-9.7852,6.6133,3.043,-0.7051,-0.6113,0.8301,1.75,-34.375,-17.5625,-0.2227,3.3398,2.4453
2.353006,0.26565967361477005,0.6603037545566084,0.04241422111564409,-0.7011596989135167,-9.8008,6.5391,2.9766,-0.7051,-0.6113,0.8301,0.3125,-36.125,-19.5625,-0.2227,3.3398,2.4453
2.361632,0.26630359349317567,0.6600671441549966,0.042770247401115145,-0.7011165860518034,-9.8086,6.5078,2.9961,-0.7051,-0.6113,0.8301,-0.8125,-34.375,-18.3125,-0.2227,3.3398,2.4453
2.361740,0.2667542453818552,0.6599012804557531,0.04301945216762895,-0.7010861568728993,-9.8359,6.5586,2.9844,-0.7051,-0.6113,0.8301,-0.8125,-34.375,-18.3125,-0.8164,3.168,1.1094
2.373982,0.26706965709009917,0.6597850598425697,0.04319388908909895,-0.7010647338268217,-9.8789,6.7383,2.9492,-0.7051,-0.6113,0.8301,-1.5625,-34.75,-19.5625,-0.8164,3.168,1.1094
2.390011,0.2869580035751981,0.6496126738953356,0.04244075329476905,-0.702749785171409,-9.8789,6.7383,2.9492,-0.7051,-0.6113,0.8301,-2.3125,-35.0625,-19.5625,-0.8164,3.168,1.1094
2.394949,0.3035659737095054,0.6409935988306895,0.04244605731263975,-0.7036854681478741,-10.0117,7.0664,3.0742,-0.7051,-0.6113,0.8301,-2.3125,-35.0625,-19.5625,-0.8164,3.168,1.1094
2.412220,0.3151305132737676,0.6348251142621057,0.04244090413082369,-0.7041935838691478,-10.2734,6.7695,3.1094,-2.0547,-0.5449,1.0723,-3.0,-34.0625,-21.5625,-0.8164,3.168,1.1094
2.422458,0.32940786830114244,0.6273813884537874,0.04421158588017382,-0.7042218296794378,-10.3828,6.4414,3.0898,-2.0547,-0.5449,1.0723,-3.0,-34.0625,-21.5625,-0.8164,3.168,1.1094
2.445027,0.33935194802886776,0.6220721023088368,0.045444329159708696,-0.7041316409914419,-10.6445,5.418,3.1406,-2.0547,-0.5449,1.0723,-5.9375,-32.25,-23.5625,-0.8164,3.168,1.1094
2.458873,0.34628725537938787,0.6183077745689368,0.04630382395479882,-0.7040146224025339,-10.6758,5.0547,3.2734,-2.0547,-0.5449,1.0723,-5.9375,-32.25,-23.5625,-2.0273,1.582,0.2969
2.462048,0.3511290960788454,0.6156494992928055,0.04690374771930965,-0.7039063079396676,-10.7773,4.4023,3.4062,-2.0547,-0.5449,1.0723,-5.9375,-32.25,-23.5625,-2.0273,1.582,0.2969
2.480977,0.35451194783267487,0.6137773860071378,0.04732283439050022,-0.703817553500463,-10.6797,4.1914,3.6758,-2.0547,-0.5449,1.0723,-6.3125,-31.5625,-24.75,-2.0273,1.582,0.2969
2.501340,0.3568767414571539,0.6124613865320777,0.04761576765689378,-0.7037490888694448,-10.6797,4.1914,3.6758,-2.0547,-0.5449,1.0723,-7.0,-28.75,-26.0625,-2.3203,0.2539,0.207
2.501453,0.3852307910867474,0.5964280376145814,0.05590462356754473,-0.7019583368047347,-10.6797,4.1914,3.6758,-2.0547,-0.5449,1.0723,-7.8125,-29.125,-25.1875,-2.3203,0.2539,0.207
2.510749,0.40483147510712303,0.5847950930053258,0.06167283343301354,-0.7002304174882914,-10.543,4.5859,3.7422,-2.0547,-0.5449,1.0723,-10.0625,-29.125,-25.125,-2.3203,0.2539,0.207
2.526909,0.41842230093531885,0.5764560344633811,0.06569143526607396,-0.6987888477526168,-10.3047,4.1172,3.5117,-2.0547,-0.5449,1.0723,-10.0,-26.625,-27.1875,-2.3203,0.2539,0.207
2.530592,0.4278694489342085,0.5705243465671587,0.0684942240497256,-0.6976662854937734,-10.0352,3.6758,3.3711,-2.0547,-0.5449,1.0723,-10.0,-26.625,-27.1875,-2.2227,-0.3828,-0.7656
2.544813,0.4464437223724663,0.5574980972501155,0.0690769762652379,-0.6964999968892812,-9.918,3.7227,3.3867,-2.0547,-0.5449,1.0723,-10.0,-26.625,-27.1875,-2.2227,-0.3828,-0.7656
2.562521,0.45931221884456375,0.5482057531723474,0.06946378782082285,-0.6954692804074142,-9.668,3.8203,3.3867,-2.0547,-0.5449,1.0723,-10.0,-26.625,-27.1875,-1.9844,-0.4531,-1.1836
2.575090,0.4721058122572074,0.5383405432351527,0.06802442875609785,-0.694750486602672,-9.2773,3.7031,3.4922,-2.0547,-0.5449,1.0723,-10.0,-26.625,-27.1875,-1.9844,-0.4531,-1.1836
2.578604,0.48098847163475994,0.5313495265282863,0.06700607206098756,-0.6941382838596223,-9.2773,3.7031,3.4922,-0.6348,-1.1621,1.0117,-14.875,-25.25,-26.625,-1.9844,-0.4531,-1.1836
2.605181,0.4871697130784728,0.5264146896163879,0.06628803080083882,-0.6936563574189079,-9.2773,3.7031,3.4922,-0.5664,-1.168,0.9844,-14.875,-25.25,-26.625,-1.7773,-1.043,-1.3477
2.605317,0.49147831452873253,0.5229404072340258,0.06578289516477019,-0.6932928728420973,-9.1406,2.8711,3.4766,-0.5664,-1.168,0.9844,-14.875,-25.25,-26.625,-1.7773,-1.043,-1.3477
2.614050,0.5020387320548616,0.5130853635200937,0.059655127052458616,-0.6936438474278823,-8.9336,2.7656,3.3711,-0.5664,-1.168,0.9844,-14.875,-25.25,-26.625,-1.7773,-1.043,-1.3477
2.629395,0.5093584683394857,0.5061106553798388,0.05535634379314832,-0.6937878857717955,-8.7383,2.8047,3.2656,0.1719,-1.2695,0.9375,-16.8125,-24.875,-25.6875,-1.7773,-1.043,-1.3477
2.648454,0.5144460421690931,0.5011916683990131,0.05234301341069516,-0.6938388791146382,-8.1992,3.6094,3.3789,0.1719,-1.2695,0.9375,-16.8125,-24.875,-25.6875,-1.5312,-1.5586,-2.1328
2.652697,0.5206099014881003,0.49458745760639794,0.04423755909970195,-0.6945441783039366,-7.9336,4.1445,3.4766,0.6699,-1.2852,0.918,-16.8125,-24.875,-25.6875,-1.5312,-1.5586,-2.1328
2.666664,0.5260251820255017,0.4883617205258359,0.033823251873616685,-0.695454042646081,-7.7305,4.4883,3.5703,0.6699,-1.2852,0.918,-16.8125,-24.875,-25.6875,-1.5312,-1.5586,-2.1328
2.687526,0.5297607367520455,0.4839517212775428,0.026528935878433572,-0.6960176066951117,-7.4727,4.6328,3.5781,0.6699,-1.2852,0.918,-18.875,-24.1875,-22.6875,-1.0586,-0.4922,-2.0703
2.697209,0.5323483501227911,0.4808395396134515,0.021421294671458795,-0.69637611920604,-7.3828,4.6133,3.5703,0.6699,-1.2852,0.918,-20.75,-24.1875,-22.25,-1.0586,-0.4922,-2.0703
2.723245,0.5368378210103314,0.47502737931181205,0.010107240409725294,-0.6971742870533387,-7.3828,4.6133,3.5703,0.6699,-1.2852,0.918,-21.125,-23.5,-22.25,-1.0586,-0.4922,-2.0703
2.723364,0.5399225056068893,0.4709067559991808,0.0021853355467768825,-0.6976573223309955,-6.625,4.9023,4.4219,0.6699,-1.2852,0.918,-21.125,-23.5,-21.375,-1.0586,-0.4922,-2.0703
2.735559,0.5420531839574289,0.46799704548349347,-0.0033604971673986254,-0.697958321276509,-6.6055,5.1016,4.5273,0.6699,-1.2852,0.918,-22.3125,-24.5625,-21.75,-1.0586,-0.4922,-2.0703
2.738266,0.5435305784899949,0.46594794865897154,-0.007242659157101203,-0.6981508169981341,-6.5352,5.3516,4.7383,-0.0645,-0.9219,0.7891,-22.3125,-24.5625,-21.75,-1.0586,-0.4922,-2.0703
2.768169,0.5445578357863438,0.46450757956298055,-0.009960161936103664,-0.6982766408712534,-6.4453,5.4375,5.0078,-0.1602,-0.8828,0.7734,-22.3125,-24.5625,-21.75,-1.0586,-0.4922,-2.0703
2.768277,0.5452735209407001,0.46349638653296527,-0.011862396950383861,-0.6983603443569858,-6.3711,5.3516,5.3438,-0.1602,-0.8828,0.7734,-22.3125,-24.5625,-21.75,-0.7695,-0.1523,-0.9492
2.780486,0.5509589855439182,0.45634824516083866,-0.020487304160681258,-0.6984058603385765,-6.3633,5.2656,5.5156,-0.1602,-0.8828,0.7734,-22.3125,-24.5625,-21.75,-0.7695,-0.1523,-0.9492
2.783374,0.5559319592736114,0.4500609828160067,-0.02727458002383625,-0.6983128709177693,-6.3594,5.207,5.6484,-0.1602,-0.8828,0.7734,-22.3125,-24.5625,-21.75,-0.7695,-0.1523,-0.9492
2.795172,0.5614623972276206,0.4431458499443186,-0.0333169547119468,-0.6980485031179876,-6.3242,5.2266,5.8125,-0.1602,-0.8828,0.7734,-22.3125,-24.5625,-21.75,-0.7695,-0.1523,-0.9492
2.809144,0.566327587889626,0.4370536989570899,-0.03817550229906174,-0.6977103685966388,-6.2188,5.8281,6.293,-0.1602,-0.8828,0.7734,-22.3125,-24.5625,-21.75,-0.7695,-0.1523,-0.9492
2.818764,0.5697048976802316,0.4327670253768216,-0.041574718781815886,-0.6974385808541619,-6.1602,5.9453,6.4727,-0.4512,-0.748,0.7559,-22.3125,-24.5625,-21.75,-0.7695,-0.1523,-0.9492
2.829610,0.5720550250452621,0.4297556297470877,-0.043953194164089944,-0.6972311408305875,-6.0938,5.8984,6.5625,-0.4785,-0.752,0.7656,-22.3125,-24.5625,-21.75,-0.7695,-0.1523,-0.9492
2.839127,0.5736932208469233,0.4276424467685853,-0.04561760990219986,-0.6970775134394106,-6.0352,5.8984,6.6211,-0.4785,-0.752,0.7656,-26.5,-19.625,-19.5,-0.7695,-0.1523,-0.9492
2.849149,0.5748365664609296,0.426160685304186,-0.046782433696462684,-0.6969658499940379,-5.9102,6.0039,7.0898,-0.4785,-0.752,0.7656,-26.5,-19.625,-19.5,-0.7695,-0.1523,-0.9492
2.858436,0.5756352414920701,0.42512221751323004,-0.04759767423103439,-0.6968856651824578,-5.8359,5.9336,7.1992,-0.5879,-0.7656,0.8027,-26.5,-19.625,-19.5,-0.7695,-0.1523,-0.9492
2.868804,0.5761934952049946,0.4243946876690968,-0.04816827383180636,-0.696828546026758,-5.8359,5.9336,7.1992,-0.6172,-0.7715,0.8105,-27.625,-18.9375,-20.3125,-0.7695,-0.1523,-0.9492
2.882419,0.5765838706912545,0.423885122781138,-0.048567658934341965,-0.6967880777174275,-5.8359,5.9336,7.1992,-0.6484,-0.7812,0.8125,-27.625,-18.9375,-20.3125,-1.2812,0.3086,0.3711
2.890563,0.5768569360476988,0.4235282838901953,-0.04884721108264336,-0.696759512348511,-5.8438,5.8984,7.3984,-0.6484,-0.7812,0.8125,-27.625,-18.9375,-20.3125,-1.2812,0.3086,0.3711
2.902184,0.5871107919977726,0.41096344987121264,-0.05425069085267701,-0.6953177858588881,-5.7188,5.8398,7.3594,-0.6484,-0.7812,0.8125,-27.625,-18.9375,-20.3125,-1.2812,0.3086,0.3711
2.915762,0.5941867429399719,0.40209477008695005,-0.058024193136796964,-0.6941866488156728,-5.5586,5.8594,7.5312,-0.7559,-0.8125,0.791,-27.625,-18.9375,-20.3125,-1.2812,0.3086,0.3711
2.925992,0.5990892275026872,0.3958517830848092,-0.060660834270577314,-0.6933352194317034,-5.4805,5.9062,7.582,-0.7559,-0.8125,0.791,-28.75,-16.8125,-19.0625,-1.457,0.3281,0.2852
2.949535,0.602495845634126,0.39146494581170393,-0.06250397271610932,-0.6927100443829027,-5.2422,6.0391,7.9531,-0.7559,-0.8125,0.791,-28.75,-16.8125,-19.0625,-1.457,0.3281,0.2852
2.960476,0.6119984439055207,0.37824990905320327,-0.06591446724282113,-0.6914045082052617,-5.2227,6.0977,7.9922,-0.7559,-0.8125,0.791,-28.75,-16.8125,-19.0625,-1.457,0.3281,0.2852
2.969556,0.6185499981742903,0.3689352301181907,-0.06829128767379777,-0.6903759814507437,-5.1445,5.9336,8.1094,-0.7559,-0.8125,0.791,-28.75,-16.8125,-19.0625,-1.5195,0.5117,0.4766
2.984535,0.623086260224557,0.3623844745674054,-0.06994965615186523,-0.6895999206178297,-5.1367,5.6367,8.4102,-0.7559,-0.8125,0.791,-28.75,-16.8125,-19.0625,-1.5195,0.5117,0.4766
2.990890,0.6298667707279015,0.351864150654233,-0.07141795611906376,-0.6887372112503838,-5.0977,5.5039,8.4141,-0.7559,-0.8125,0.791,-28.75,-16.8125,-19.0625,-1.5195,0.5117,0.4766
3.004518,0.6345537517910113,0.3444658544267423,-0.07243907766356344,-0.688067868199975,-4.8281,5.1602,8.4727,-0.7559,-0.8125,0.791,-28.75,-16.8125,-19.0625,-1.6328,0.1094,0.5195
3.014795,0.63780525636962,0.3392707955182096,-0.07315052329014586,-0.6875672935779468,-4.8281,5.1602,8.4727,-1.1406,-0.9766,0.6973,-30.3125,-12.5625,-18.1875,-1.6328,0.1094,0.5195
3.029338,0.6400668145687671,0.3356264444097606,-0.07364687764507369,-0.6872012078814944,-4.6953,5.0742,8.8867,-1.1406,-0.9766,0.6973,-30.3125,-12.5625,-18.1875,-1.6328,0.1094,0.5195
3.040749,0.6416427692503908,0.33307162514683475,-0.07399350615535759,-0.686937268051147,-4.5039,5.0547,8.9336,-1.1406,-0.9766,0.6973,-31.5,-10.5,-18.1875,-1.6328,0.1094,0.5195
3.050543,0.6495899470454147,0.31824792447838696,-0.07507087994384645,-0.6863785560805283,-4.3906,5.0352,8.8008,-1.1406,-0.9766,0.6973,-31.5,-10.5,-18.1875,-1.6328,0.1094,0.5195
3.061271,0.6560746434210138,0.30558419635270995,-0.07608720686269782,-0.6858535544497024,-4.2656,4.9297,8.8438,-1.1406,-0.9766,0.6973,-31.5,-10.5,-18.1875,-1.6328,0.1094,0.5195
3.073940,0.6624774770594332,0.2921106106750735,-0.07734266957638644,-0.685429131991632,-4.1484,4.7656,8.8008,-1.1406,-0.9766,0.6973,-31.5,-10.5,-18.1875,-1.6328,0.1094,0.5195
3.088504,0.6677870259612517,0.2802873609495373,-0.07845664498446527,-0.6850868836195536,-4.1484,4.7656,8.8008,-1.1406,-0.9766,0.6973,-31.5,-9.0625,-17.75,-1.6328,0.1094,0.5195
3.099726,0.6723489473461348,0.2695384694677116,-0.07947360288100479,-0.6848210371510648,-3.8516,3.9336,8.8516,-1.1406,-0.9766,0.6973,-31.5,-9.0625,-17.75,-1.6328,0.1094,0.5195
3.121417,0.6754875964519664,0.2619914927917612,-0.08017903955509789,-0.6845789117116535,-3.6914,3.8867,8.7031,-1.1133,-1.2129,0.5293,-31.5,-9.0625,-17.75,-1.6328,0.1094,0.5195
3.121830,0.6776576921005131,0.2566978237052083,-0.08066965778809915,-0.6843819737210843,-3.4883,3.7891,8.6562,-1.0879,-1.2422,0.5059,-31.5,-9.0625,-17.75,-1.6328,0.1094,0.5195
3.132666,0.679163499598973,0.25298708693424216,-0.08101151765468591,-0.6842306691929896,-3.4883,3.7891,8.6562,-1.0879,-1.2422,0.5059,-33.0625,-7.375,-16.5,-1.7148,-0.4766,-0.3203
3.145033,0.6838670836492174,0.2381480431782412,-0.08307146220104485,-0.6846243156646344,-3.2695,3.5391,8.5039,-1.0879,-1.2422,0.5059,-33.0625,-7.375,-16.5,-1.7148,-0.4766,-0.3203
3.156880,0.6870596285267246,0.22772434547553425,-0.08450142101486216,-0.684799386078089,-3.1641,3.3984,8.5508,-1.0879,-1.2422,0.5059,-34.1875,-5.1875,-15.625,-1.7148,-0.4766,-0.3203
3.167406,0.6892451138410826,0.22041091218840267,-0.08549637495725834,-0.6848726689711288,-2.8359,3.1211,8.5312,-1.0879,-1.2422,0.5059,-35.0,-4.875,-15.625,-1.7148,-0.4766,-0.3203
3.185274,0.6923083667027267,0.20796872921175225,-0.08761477348901624,-0.6854062915745085,-2.625,2.9453,8.4141,-1.0879,-1.2422,0.5059,-35.0,-4.875,-15.625,-1.7148,-0.4766,-0.3203
3.200509,0.6943832427405277,0.19923744533903606,-0.08908898703518033,-0.685710948552646,-2.5508,2.957,8.3281,-0.8164,-1.3555,0.3125,-35.0,-4.875,-15.625,-1.7148,-0.4766,-0.3203
3.203226,0.6958015110076963,0.1931154375975886,-0.09011659613778639,-0.6858904315861519,-2.1289,3.0156,8.3398,-0.8164,-1.3555,0.3125,-34.25,-2.75,-14.375,-1.7148,-0.4766,-0.3203
3.217469,0.6967775220879334,0.1888252681319474,-0.09083376363697554,-0.6859995118157445,-2.043,3.0625,8.375,-0.8164,-1.3555,0.3125,-36.5,-3.8125,-15.125,-1.4648,-0.4766,-1.0742
3.230995,0.6974524940578087,0.18581988000908986,-0.09133471211959082,-0.6860677525492518,-1.9648,2.8906,8.3281,-0.8164,-1.3555,0.3125,-36.5,-3.8125,-15.125,-1.4648,-0.4766,-1.0742
3.240925,0.6998426198434834,0.170146399498104,-0.09573382861551952,-0.6870993699946576,-1.8516,2.5156,8.2578,-0.8164,-1.3555,0.3125,-36.5,-3.8125,-15.125,-1.4648,-0.4766,-1.0742
3.251520,0.7014027577047475,0.1591458327021833,-0.09879817767174268,-0.6877104736053151,-1.2852,2.4766,7.9297,-0.8164,-1.3555,0.3125,-36.6875,-3.5,-11.3125,-1.4648,-0.4766,-1.0742
3.262219,0.7024393297739491,0.15143230127905746,-0.10093553532406985,-0.6880837622156896,-1.2852,2.4766,7.9297,-0.6816,-1.2715,0.2617,-36.625,-2.4375,-13.0625,-1.4648,-0.4766,-1.0742
3.273300,0.7031376658354815,0.1460267925068404,-0.10242780784132641,-0.6883183441797953,-1.0078,2.6133,8.1758,-0.6816,-1.2715,0.2617,-36.625,-3.8125,-11.8125,-1.4648,-0.4766,-1.0742
3.297997,0.7036131224308598,0.1422401205955357,-0.10347045904945514,-0.6884694518569131,-0.9688,2.7266,8.3672,-0.6816,-1.2715,0.2617,-37.0625,-1.75,-10.5,-1.4648,-0.4766,-1.0742
3.299274,0.7039393798491383,0.13958812291548858,-0.1041993500729556,-0.6885688062081484,-0.6836,2.4766,8.2891,-0.6816,-1.2715,0.2617,-37.875,-4.1875,-10.0625,-1.207,-0.3281,-1.2227
3.335166,0.7041645420720501,0.13773109459617702,-0.10470909540942455,-0.6886352072094042,-0.5859,2.2109,8.3164,-0.6816,-1.2715,0.2617,-37.5,-2.4375,-8.8125,-1.207,-0.3281,-1.2227
3.335280,0.7043205777891772,0.136430874849542,-0.10506568034254597,-0.6886801455717061,-0.4922,1.9609,8.3281,-0.8574,-1.1426,0.1973,-37.5,-2.4375,-8.8125,-1.207,-0.3281,-1.2227
3.335365,0.7044290291616031,0.1355205782769893,-0.10531517261066241,-0.6887108465502036,-0.3281,1.875,8.3789,-0.8574,-1.1426,0.1973,-36.6875,-2.0625,-10.5,-1.207,-0.3281,-1.2227
3.344332,0.7045045657799373,0.13488330302114415,-0.10548975915119051,-0.6887319667879168,-0.2031,1.9883,8.4336,-0.8574,-1.1426,0.1973,-36.6875,-2.0625,-10.5,-1.0781,-0.6758,-1.293
3.349624,0.7063134330237993,0.11153572666619675,-0.11154024909615066,-0.6901013612787232,-0.0508,2.1055,8.6172,-0.8574,-1.1426,0.1973,-36.6875,-2.0625,-10.5,-1.0781,-0.6758,-1.293
3.359264,0.7073779069586172,0.09323303372785471,-0.11622557692985112,-0.6909527577454697,0.1016,2.1797,8.7617,-0.8574,-1.1426,0.1973,-36.6875,-2.0625,-10.5,-1.0781,-0.6758,-1.293
3.370528,0.7080214217928783,0.07854385577802382,-0.1199695706099463,-0.691479450981428,0.4102,2.125,8.7539,-0.8574,-1.1426,0.1973,-36.6875,-2.0625,-10.5,-1.0781,-0.6758,-1.293
3.399510,0.7083748277534104,0.06824935408111825,-0.12257424367008969,-0.6917533403327676,0.5234,2.0469,8.6641,-0.8574,-1.1426,0.1973,-36.6875,-2.0625,-10.5,-0.8789,-0.2734,-1.0
3.399622,0.70855427883842,0.057383610242517834,-0.1253617684991297,-0.6920566322303919,0.5234,2.0469,8.6641,-0.8574,-1.1426,0.1973,-36.6875,-2.0625,-10.5,-0.8789,-0.2734,-1.0
3.405651,0.7086267961765612,0.04977265724432377,-0.12730380146400083,-0.6922170818928088,0.207,2.4219,9.0586,-0.8574,-1.1426,0.1973,-36.6875,-2.0625,-10.5,-0.8789,-0.2734,-1.0
3.423504,0.708651532023615,0.0444429155286934,-0.1286586114069046,-0.6923039759605168,0.207,2.4219,9.0586,-0.5488,-1.0781,0.2051,-38.0,-1.375,-6.75,-0.8789,-0.2734,-1.0
3.429179,0.7086560923517463,0.04071119098424493,-0.1296046893905747,-0.6923523425174283,1.0117,1.6719,8.8281,-0.5488,-1.0781,0.2051,-38.0,-1.375,-6.3125,-0.7383,-0.8867,-1.1641
3.440073,0.7086530342725154,0.03809857397102839,-0.1302658137296763,-0.6923800931938155,1.0117,1.9141,8.7891,-0.4297,-1.0508,0.1719,-38.0,-1.375,-6.3125,-0.7383,-0.8867,-1.1641
3.448273,0.7086478308203982,0.03626954976967133,-0.13072804475673896,-0.692396526527343,1.0898,1.9805,8.8203,-0.4219,-1.041,0.168,-38.0,-1.375,-6.3125,-0.7383,-0.8867,-1.1641
3.463030,0.7086426875733388,0.03498913938376126,-0.13105133382164605,-0.6924065636442123,1.3203,1.7422,8.7695,-0.4219,-1.041,0.168,-39.1875,0.375,-3.0,-0.7383,-0.8867,-1.1641
3.471203,0.7086383518611364,0.034092805089822605,-0.1312775028732283,-0.6924128711628699,1.4727,1.75,8.7812,-0.4219,-1.041,0.168,-39.1875,0.375,-3.0,-0.8828,-0.1562,-0.9102
3.483104,0.7084714236398671,0.01844106946471384,-0.13669951369272085,-0.6921281758452482,1.5586,1.7969,8.793,-0.4219,-1.041,0.168,-39.1875,0.375,-3.0,-0.8828,-0.1562,-0.9102
3.500597,0.7082388224333601,0.007480003594700093,-0.14047322770223375,-0.6918157935775585,1.625,1.4922,8.8867,-0.4219,-1.041,0.168,-38.8125,1.0,-2.625,-0.8828,-0.1562,-0.9102
3.506019,0.7080192862686893,-0.000194014503515371,-0.1431038130873529,-0.6915417205851055,1.7109,1.3672,8.8477,-0.4219,-1.041,0.168,-38.8125,0.375,-2.125,-0.8672,-0.2969,-0.7773
3.535959,0.7078378256470076,-0.005566080069004696,-0.14493969773813617,-0.6913227288000586,1.9492,1.4062,8.832,-0.4219,-1.041,0.168,-38.8125,0.375,-2.125,-0.8672,-0.2969,-0.7773
3.536634,0.7076971909739557,-0.009326529018995215,-0.14622206807304075,-0.6911561390543193,1.9492,1.4062,8.832,-0.4219,-1.041,0.168,-38.8125,0.375,-2.125,-0.8086,-0.125,-0.7734
3.549404,0.7075920776190319,-0.01195880766579099,-0.14711836758365732,-0.6910330126191618,2.0938,1.4609,8.832,-0.4219,-1.041,0.168,-38.8125,0.375,-2.125,-0.8086,-0.125,-0.7734
3.560779,0.707515230638289,-0.013801375577545606,-0.14774510764363188,-0.6909436327330817,2.1719,1.5391,8.8828,-0.4219,-1.041,0.168,-38.875,1.0,-1.3125,-0.8086,-0.125,-0.7734
3.571731,0.7074598365948775,-0.015091158623682287,-0.14818349716356755,-0.6908795030285085,2.1719,1.5391,8.8828,-0.8359,-0.9004,0.1328,-38.1875,1.0,-0.0625,-0.8086,-0.125,-0.7734
3.583724,0.7074202761221371,-0.01599400073675901,-0.14849020921359246,-0.690833845898864,2.3047,1.1641,9.2578,-0.8359,-0.9004,0.1328,-38.1875,1.0,-0.0625,-0.8711,0.2773,-0.1914
3.644587,0.7060474387066423,-0.0377973877671153,-0.15148966686041568,-0.6907381939695335,2.3047,0.8789,9.2617,-0.8359,-0.9004,0.1328,-38.5625,1.375,-0.0625,-0.8711,0.2773,-0.1914
3.644727,0.7048818209510231,-0.053053120162391,-0.15354603131629052,-0.6904712891937081,2.4102,0.457,9.25,-0.8359,-0.9004,0.1328,-38.5625,1.375,-0.0625,-1.0195,-0.4023,-0.1953
3.644810,0.7039657714806608,-0.06372610048174239,-0.15496390401390717,-0.6901864712914891,2.5352,0.3789,9.2031,-0.8359,-0.9004,0.1328,-39.6875,0.375,0.8125,-1.0195,-0.4023,-0.1953
3.644927,0.7032755462706004,-0.0711932819024612,-0.15594571041999575,-0.6899390973349372,2.6406,0.5898,9.293,-0.8359,-0.9004,0.1328,-39.6875,0.375,0.8125,-0.9883,-0.1016,-0.082
3.645005,0.7027684093841848,-0.07641807310212735,-0.15662768655674889,-0.6897424219800182,2.707,0.5039,9.3789,-0.8633,-0.9648,0.0801,-39.6875,0.375,0.8125,-0.9883,-0.1016,-0.082
3.657968,0.7024016733267161,-0.08007422287035833,-0.15710246420085996,-0.6895932307393648,2.8984,0.0742,9.3359,-0.8633,-0.9648,0.0801,-39.0,1.375,2.0,-0.9883,-0.1016,-0.082
3.674158,0.7021392087033145,-0.08263290190655974,-0.15743352707929203,-0.6894831540185432,3.1289,0.0156,9.2891,-0.8633,-0.9648,0.0801,-39.0,1.375,2.0,-0.8867,-0.2539,0.0508
3.688640,0.6997964072409806,-0.10002861774131541,-0.1579896757189809,-0.6894334822240566,3.1953,-0.1445,9.1719,-0.8223,-1.0098,0.0664,-39.0,1.375,2.0,-0.8867,-0.2539,0.0508
3.692191,0.6980277185400433,-0.11218935674581008,-0.15835004839006825,-0.6892721629063562,3.207,-0.3008,9.1055,-0.8008,-1.0117,0.0566,-39.0,1.375,2.0,-0.8867,-0.2539,0.0508
3.703664,0.6967267437881184,-0.12069248274788243,-0.15858808571781544,-0.6890972269331204,3.207,-0.3008,9.1055,-0.7715,-1.0176,0.0449,-38.375,1.375,5.375,-0.8867,-0.2539,0.0508
3.713419,0.6957853138497699,-0.12663957813977422,-0.15874772740526982,-0.6889443905883981,3.168,-0.5781,9.2148,-0.7715,-1.0176,0.0449,-38.375,1.375,5.375,-1.0547,-0.5352,0.0156
3.729556,0.6951112724226558,-0.1307998785877726,-0.15885604936630882,-0.688822521620852,2.918,-0.5391,9.2148,-0.7168,-1.0293,0.0156,-38.375,1.375,5.375,-1.0547,-0.5352,0.0156
3.740724,0.6946320831389606,-0.13371072202080267,-0.158930193777579,-0.6887299219552792,3.8555,-0.7695,9.1211,-0.7168,-1.0293,0.0156,-39.125,1.3125,6.625,-1.0547,-0.5352,0.0156
3.749414,0.6942930476860815,-0.13574762067094176,-0.1589812706271921,-0.6886615300760702,3.5898,-0.5312,8.9258,-0.7168,-1.0293,0.0156,-39.125,1.3125,6.625,-0.9375,-0.4414,0.0039
3.763134,0.6908851482097953,-0.1519217144792758,-0.1611682140292772,-0.6882022314984307,3.1016,-0.5312,8.7148,-0.7363,-1.0449,-0.1152,-39.125,1.3125,6.625,-0.9375,-0.4414,0.0039
3.777259,0.6883848655920258,-0.1632201583469459,-0.16267262430778887,-0.6877667293740395,2.6992,-0.4609,8.7305,-0.7363,-1.0449,-0.1152,-38.125,1.0,7.8125,-2.207,-0.0312,-0.0273
3.789509,0.6865786856575298,-0.17111639286101757,-0.16371258761946972,-0.6874060496896651,11.3984,-0.3555,9.1445,-0.7363,-1.0449,-0.1152,-38.125,1.0,7.8125,-2.207,-0.0312,-0.0273
3.817910,0.6852870193547634,-0.1766371300225334,-0.16443407567390134,-0.6871262330594986,4.2031,-0.7031,7.918,-0.7363,-1.0449,-0.1152,-38.125,1.0,7.8125,-2.207,-0.0312,-0.0273
3.818013,0.6812699221036331,-0.1895374469794569,-0.16653027676669002,-0.6871786640673798,4.2031,-0.7031,7.918,-0.7363,-1.0449,-0.1152,-38.125,1.0,7.8125,-2.207,-0.0312,-0.0273
3.847363,0.6777180479105188,-0.20032550640397093,-0.16831580648947064,-0.6871955531769305,4.5469,-1.0938,8.1367,-0.7363,-1.0449,-0.1152,-38.125,1.0,7.8125,-2.207,-0.0312,-0.0273
3.849244,0.6751782600754446,-0.20786190117164732,-0.16955252239765445,-0.6871533230010581,4.5156,-0.8828,8.1523,-0.7363,-1.0449,-0.1152,-38.1875,0.3125,9.5,-2.207,-0.0312,-0.0273
3.864905,0.673374332250656,-0.21312951864772028,-0.17041171327221485,-0.687097274719237,4.6133,-1.1133,8.1367,-0.541,-1.0723,-0.1562,-38.1875,0.3125,9.5,-2.207,-0.0312,-0.0273
3.873572,0.6689509014961353,-0.22501401049879238,-0.17356163477960468,-0.6868404075179243,4.6602,-1.1055,8.0781,-0.541,-1.0723,-0.1562,-38.1875,0.3125,9.5,-2.207,-0.0312,-0.0273
3.885476,0.6651790073075291,-0.23481924055419184,-0.17641525695633142,-0.6864943332730098,4.7461,-1.1328,8.0312,-0.541,-1.0723,-0.1562,-38.1875,0.3125,9.5,-2.207,-0.0312,-0.0273
3.916717,0.6618666175077936,-0.2431796696248531,-0.17909997688111745,-0.6860899556115966,4.7188,-1.4297,7.8945,-0.541,-1.0723,-0.1562,-38.1875,0.3125,9.5,-2.207,-0.0312,-0.0273
3.916823,0.6595130641785786,-0.24901952473507796,-0.18096998071416465,-0.6857708513481838,4.8828,-1.6484,7.7773,-0.3418,-1.1113,-0.1621,-38.1875,0.3125,9.5,-2.207,-0.0312,-0.0273
3.937140,0.6578485590072267,-0.25310113670277634,-0.18227436568555588,-0.6855298269410356,4.9375,-1.668,7.6875,-0.3418,-1.1113,-0.1621,-35.9375,-0.0625,11.9375,-2.207,-0.0312,-0.0273
3.942357,0.6566750914537827,-0.2559551222454561,-0.18318515246163908,-0.6853524637572158,4.9961,-1.6602,7.5742,-0.3418,-1.1113,-0.1621,-36.75,0.3125,12.3125,-2.207,-0.0312,-0.0273
3.942540,0.655849598336025,-0.2579513522304282,-0.18382157830246926,-0.6852240740045241,5.0938,-1.5078,7.4453,-0.3418,-1.1113,-0.1621,-36.75,0.3125,12.3125,-2.207,-0.0312,-0.0273
3.942618,0.6552697632323496,-0.2593479430734138,-0.18426652333212118,-0.6851321260867153,5.1875,-1.4766,7.3555,-0.0195,-1.1641,-0.1582,-36.75,0.3125,12.3125,-2.207,-0.0312,-0.0273
3.949002,0.6548629041032679,-0.260325178019768,-0.18457771344567692,-0.6850667458120968,5.2344,-1.4688,7.3867,-0.0195,-1.1641,-0.1582,-36.8125,1.3125,15.25,-2.207,-0.0312,-0.0273
3.958823,0.6545776251436981,-0.2610090570113675,-0.1847954135549195,-0.6850204814079204,5.2734,-1.6211,7.2812,-0.0195,-1.1641,-0.1582,-36.0,0.6875,13.9375,-2.207,-0.0312,-0.0273
3.976609,0.6543776957033475,-0.26148768179737586,-0.18494773859400654,-0.6849878521719743,5.5039,-1.6992,7.1016,-0.0195,-1.1641,-0.1582,-36.0,0.6875,13.9375,-2.207,-0.0312,-0.0273
3.977770,0.6542376301945961,-0.2618226751717204,-0.18505433437152738,-0.6849648920445439,5.582,-1.7188,6.9844,-0.0137,-1.1621,-0.1777,-36.0,0.6875,13.9375,-2.207,-0.0312,-0.0273
3.990888,0.6541395279109485,-0.26205714928529766,-0.18512893595361013,-0.6849487612994046,5.6289,-1.7539,6.9336,-0.0137,-1.1621,-0.1777,-36.4375,0.625,15.25,-2.207,-0.0312,-0.0273
3.999563,0.6540708285691336,-0.2622212709760758,-0.1851811495554947,-0.6849374410206264,5.7227,-1.6797,6.8828,-0.0137,-1.1621,-0.1777,-35.6875,0.3125,15.6875,-2.207,-0.0312,-0.0273
4.012582,0.654022725368189,-0.26233615132780247,-0.1852176954501643,-0.684929502723173,5.7227,-1.6797,6.8828,-0.1602,-1.1035,-0.2461,-35.6875,0.3125,15.6875,-2.207,-0.0312,-0.0273
4.018086,0.653989046385453,-0.2624165653204421,-0.18524327583563277,-0.6849239389968435,5.793,-1.7188,6.668,-0.1602,-1.1035,-0.2461,-35.6875,0.3125,15.6875,-2.207,-0.0312,-0.0273
4.033540,0.6539654677602137,-0.2624728540913936,-0.18526118127802219,-0.6849200409929285,5.8008,-1.8516,6.6797,-0.1602,-1.1035,-0.2461,-34.25,-0.75,16.4375,-2.207,-0.0312,-0.0273
4.037636,0.6539489610635922,-0.2625122557857825,-0.18527371470019738,-0.6849173107224683,5.8398,-1.9766,6.7109,-0.1602,-1.1035,-0.2461,-34.25,-0.75,16.4375,-1.2539,-1.0781,-0.2656
4.049742,0.6539374055464809,-0.2625398367932354,-0.18528248791843036,-0.6849153987132099,5.8867,-2.1484,6.5898,-0.1602,-1.1035,-0.2461,-34.25,-0.75,16.4375,-1.2539,-1.0781,-0.2656
4.057727,0.6539293162664401,-0.2625591434386476,-0.18528862909313767,-0.6849140599030328,5.9336,-2.043,6.6172,-0.4609,-0.9727,-0.3633,-34.25,-0.75,16.4375,-1.2539,-1.0781,-0.2656
4.067656,0.6539236535574248,-0.26257265808054275,-0.18529292788335944,-0.684913122536749,6.0117,-1.9961,6.6172,-0.4609,-0.9727,-0.3633,-34.625,-2.1875,17.6875,-1.2539,-1.0781,-0.2656
4.077514,0.6539196895510544,-0.26258211833861184,-0.18529593702512134,-0.6849124662818177,6.1055,-1.957,6.5664,-0.4609,-0.9727,-0.3633,-35.0,-0.0625,17.3125,-1.2539,-1.0781,-0.2656
4.088149,0.6539169146886787,-0.26258874053305825,-0.18529804342179818,-0.6849120068544243,6.3359,-1.7266,6.5078,-0.4609,-0.9727,-0.3633,-35.0,-0.0625,17.3125,-1.2539,-1.0781,-0.2656
4.098886,0.6539149722538454,-0.2625933760825921,-0.18529951790033772,-0.684911685230805,6.4922,-1.6211,6.5586,-0.5977,-0.9043,-0.4941,-35.0,-0.0625,17.3125,-1.2539,-1.0781,-0.2656
4.114886,0.6539136125322349,-0.2625966209785046,-0.18530055003722262,-0.6849114600819705,6.4922,-1.4492,6.6016,-0.668,-0.8867,-0.5352,-35.0,-0.0625,17.3125,-1.2539,-1.0781,-0.2656
4.121231,0.6539126607172984,-0.2625988924144141,-0.1853012725350147,-0.6849113024715322,6.5273,-1.4297,6.5625,-0.668,-0.8867,-0.5352,-33.5625,-2.9375,18.9375,-1.2539,-1.0781,-0.2656
4.136115,0.6539119944410788,-0.26260048242613304,-0.18530177828516245,-0.6849111921410024,6.5977,-1.543,6.5781,-0.668,-0.8867,-0.5352,-33.1875,-4.3125,19.75,-1.2539,-1.0781,-0.2656
4.146639,0.6539115280442308,-0.2626015954391609,-0.18530213231160428,-0.6849111149079412,6.6328,-1.5234,6.5,-0.668,-0.8867,-0.5352,-33.1875,-4.3125,19.75,-1.2539,-1.0781,-0.2656
4.149039,0.6539112015642559,-0.2626023745517639,-0.18530238013112543,-0.6849110608438924,6.6328,-1.5234,6.5,-0.9121,-0.832,-0.6758,-33.625,-3.5625,20.1875,-1.2539,-1.0781,-0.2656
4.166220,0.6539109730268761,-0.2626029199330766,-0.18530255360553538,-0.68491102299856,6.6328,-1.5234,6.5,-0.9277,-0.8301,-0.7012,-33.625,-3.5625,20.1875,-1.1406,-0.3281,0.3633
4.170400,0.6539108130497957,-0.26260330170176444,-0.18530267503816192,-0.6849109965065451,6.9609,-1.1523,6.2344,-0.9277,-0.8301,-0.7012,-33.625,-3.5625,20.1875,-1.1406,-0.3281,0.3633
4.178549,0.6539107010652304,-0.26260356894109665,-0.185302760041387,-0.6849109779619696,6.9688,-1.0938,6.2422,-0.9629,-0.8301,-0.7383,-33.625,-3.5625,20.1875,-1.1406,-0.3281,0.3633
4.191910,0.6539106226756236,-0.26260375600951086,-0.18530281954391944,-0.6849109649806674,7.1445,-1.1719,6.0234,-0.9844,-0.834,-0.7539,-33.625,-3.5625,20.1875,-1.1406,-0.3281,0.3633
4.204080,0.6539105678026186,-0.26260388695802106,-0.18530286119588674,-0.6849109558936941,7.207,-1.0938,5.918,-0.9844,-0.834,-0.7539,-33.625,-3.5625,20.1875,-0.875,-0.1875,0.2188
4.217969,0.6539105293913227,-0.2626039786224138,-0.18530289035240102,-0.6849109495327733,7.2383,-0.8438,5.8594,-0.9844,-0.834,-0.7539,-33.625,-3.5625,20.1875,-0.875,-0.1875,0.2188
4.227584,0.6539105025032823,-0.2626040427877943,-0.1853029107620576,-0.684910945080103,7.2227,-0.7383,5.7812,-1.0137,-0.8418,-0.8242,-33.625,-3.5625,20.1875,-0.875,-0.1875,0.2188
4.241328,0.653910483681562,-0.26260408770377497,-0.18530292504888507,-0.6849109419632168,7.293,-0.75,5.543,-1.0137,-0.8418,-0.8242,-31.75,-7.1875,21.75,-0.875,-0.1875,0.2188
4.250084,0.6539104705062937,-0.2626041191451116,-0.1853029350497119,-0.6849109397813848,7.332,-0.8281,5.582,-1.0137,-0.8418,-0.8242,-31.75,-7.1875,21.75,-0.9805,0.1953,0.1211
4.263110,0.6150360326635351,-0.3130522776154077,-0.20785036354388597,-0.6932006754035797,7.4062,-0.8438,5.4766,-1.0137,-0.8418,-0.8242,-31.75,-7.1875,21.75,-0.9805,0.1953,0.1211
4.276589,0.586049540965872,-0.34759441390166135,-0.22310076824843256,-0.6971012165855187,7.4062,-0.8438,5.4766,-1.0254,-0.8633,-0.873,-31.375,-8.1875,22.1875,-0.9375,0.1367,0.1719
4.286689,0.5649355320672039,-0.37133305388296206,-0.233486731005913,-0.698887368712635,7.4844,-0.6719,5.3594,-1.0254,-0.8633,-0.873,-29.5,-9.9375,21.3125,-0.9375,0.1367,0.1719
4.301927,0.5497692695784796,-0.38771306874730316,-0.2406058131525225,-0.6996721869753774,7.6094,-0.4531,5.2266,-1.0254,-0.8633,-0.873,-29.5,-9.9375,21.3125,-0.9375,0.1367,0.1719
4.317256,0.5315033808127603,-0.4046450144544062,-0.2462262736995025,-0.7022386991627968,7.4883,-0.2031,4.8555,-1.0254,-0.8633,-0.873,-29.5,-9.9375,21.3125,-0.9375,0.1367,0.1719
4.323096,0.5166077018736711,-0.4177379786893093,-0.25027208951365065,-0.7042551701875149,7.7266,-0.1367,4.4336,-1.0254,-0.8633,-0.873,-29.5,-9.9375,21.3125,-0.9375,0.1367,0.1719
4.331017,0.504054343714604,-0.42825012890726644,-0.2531553170005238,-0.7060052628328729,7.7969,-0.2891,4.5391,-1.0254,-0.8633,-0.873,-29.5,-9.9375,21.3125,-0.9375,0.1367,0.1719
4.343269,0.49320734445296144,-0.4369507859689589,-0.25515044123810565,-0.7076148517059028,7.7266,-0.5312,4.4883,-1.0254,-0.8633,-0.873,-29.5,-9.9375,21.3125,-0.9375,0.1367,0.1719
4.350782,0.48555483071832334,-0.44299000725545,-0.2565168426648858,-0.7086575119669268,7.8164,-0.625,3.8477,-1.1992,-0.8535,-0.873,-29.5,-9.9375,21.3125,-0.9375,0.1367,0.1719
4.366869,0.4801694134044963,-0.4471919057435789,-0.25745842862752827,-0.7093461012769802,7.8164,-0.8359,3.5039,-1.1992,-0.8535,-0.873,-28.0,-12.125,22.5,-1.0078,-0.1172,-0.918
4.378345,0.46829974605456814,-0.4557122341002607,-0.2578676145359305,-0.7117064007792293,7.7891,-1.1055,3.8086,-1.1992,-0.8535,-0.873,-28.0,-12.125,22.5,-1.0078,-0.1172,-0.918
4.387597,0.45992881856528606,-0.4616177768445673,-0.25812043998973816,-0.7132659731220349,7.7891,-1.1055,3.8086,-1.0117,-0.8281,-0.8398,-26.8125,-14.1875,21.625,-1.0078,-0.1172,-0.918
4.400234,0.45403938688508333,-0.4657224093918569,-0.25828092635375677,-0.71431214159435,7.9766,-0.5469,3.6289,-0.957,-0.8125,-0.8516,-26.8125,-14.1875,21.625,-1.0,-0.1055,-0.5312
4.451114,0.44990242342033704,-0.4685811558149116,-0.25838517850148945,-0.7150221040963857,7.9844,-0.5312,3.6367,-0.957,-0.8125,-0.8516,-26.8125,-14.1875,21.625,-1.0,0.0547,-0.4727
4.451207,0.43939319853535236,-0.47530497241266567,-0.2587676232255148,-0.7169784637287828,7.9844,-0.5312,3.6367,-0.957,-0.8125,-0.8516,-26.8125,-14.1875,21.625,-1.0,0.0547,-0.4727
4.451288,0.4319943375127286,-0.47996692108440947,-0.2590107785622703,-0.718279934016159,8.082,-0.6328,3.3203,-0.957,-0.8125,-0.8516,-26.8125,-14.1875,21.625,-1.0,0.0547,-0.4727
4.453007,0.420829584100041,-0.4865234348853042,-0.25932902992100665,-0.7203789715794189,7.9844,-0.75,3.2461,-0.957,-0.8125,-0.8516,-26.8125,-14.1875,21.625,-1.0,0.0547,-0.4727
4.459454,0.4109259877058296,-0.492144585470672,-0.25951154640167945,-0.7222100088645254,8.1211,-0.4805,3.1484,-0.957,-0.8125,-0.8516,-26.8125,-14.1875,21.625,-1.0,0.0547,-0.4727
4.468983,0.4039603799387464,-0.49604073556062006,-0.25961876953558555,-0.7234346512360678,8.082,-0.2812,3.1484,-1.123,-0.7246,-1.0039,-26.8125,-14.1875,21.625,-1.0,0.0547,-0.4727
4.477460,0.3990685804435763,-0.4987489044511321,-0.2596837549130941,-0.7242638647936127,8.125,-0.2422,3.2148,-1.1641,-0.7109,-1.0391,-26.8125,-14.1875,21.625,-1.0,0.0547,-0.4727
4.491328,0.3956366579466034,-0.5006351808207544,-0.2597243079942676,-0.724830555682024,8.1289,-0.2695,3.2812,-1.1641,-0.7109,-1.0391,-22.3125,-19.5,22.3125,-1.0,0.0547,-0.4727
4.499191,0.39323059581736886,-0.5019509263276959,-0.2597502756011705,-0.7252204908832908,7.9883,-0.4922,3.4375,-1.1641,-0.7109,-1.0391,-22.3125,-19.5,22.3125,-1.0,0.0547,-0.4727
4.511366,0.39154454357924406,-0.5028696638743554,-0.2597672671783076,-0.7254901367013392,7.9883,-0.4922,3.4375,-1.2754,-0.6699,-1.0996,-23.0625,-19.8125,22.375,-1.0,0.0547,-0.4727
4.527200,0.39036342429350895,-0.5035116588700742,-0.2597785802181695,-0.7256772668449687,7.9492,-0.375,3.5312,-1.2617,-0.6719,-1.1152,-21.875,-19.5,21.9375,-1.0,0.0547,-0.4727
4.546788,0.38953620902994124,-0.5039605055065891,-0.2597862146128588,-0.7258074630652723,7.9648,-0.375,3.5781,-1.2617,-0.6719,-1.1152,-21.875,-20.875,21.5,-1.332,-0.4219,0.375
4.566434,0.38895694672585135,-0.5042744287455989,-0.25979141916853743,-0.7258982109313952,8.25,-0.2227,3.5508,-1.2617,-0.6719,-1.1152,-21.875,-20.875,21.5,-1.332,-0.4219,0.375
4.566541,0.3885513591768295,-0.5044940431329111,-0.2597949939937726,-0.7259615436240562,8.25,-0.2227,3.5508,-1.2617,-0.6719,-1.1152,-21.875,-20.875,21.5,-1.0742,-0.4102,0.4727
4.574480,0.3882673967241116,-0.5046477087115705,-0.25979746287493266,-0.7260057830465204,8.2578,0.4766,3.2734,-1.2617,-0.6719,-1.1152,-21.875,-20.875,21.5,-1.0742,-0.4102,0.4727
4.592718,0.3880685977429478,-0.5047552431185894,-0.2597991746799407,-0.7260367048749928,8.0273,0.4844,3.9727,-1.2617,-0.6719,-1.1152,-21.875,-20.875,21.5,-1.0742,-0.4102,0.4727
4.608535,0.3879294259342121,-0.504830501846265,-0.25980036490279984,-0.7260583277508583,8.0742,0.5625,3.8945,-1.2617,-0.6719,-1.1152,-21.875,-20.875,21.5,-1.2734,0.2344,1.0938
4.637673,0.35008304141750185,-0.5200997904289009,-0.26005949453550153,-0.7343753341511577,8.0742,0.5625,3.8945,-1.2617,-0.6719,-1.1152,-18.4375,-23.3125,19.75,-1.1445,0.4062,1.1328
4.637764,0.3232021606904009,-0.5302614757562365,-0.259972285710895,-0.7394440758543727,8.4219,1.6836,3.7422,-1.2617,-0.6719,-1.1152,-18.0625,-23.6875,20.5625,-1.1445,0.4062,1.1328
4.650733,0.30421234664537167,-0.5371093418706263,-0.2597794034767884,-0.7426190574938559,8.3008,2.0469,3.5898,-1.1816,-0.7754,-1.291,-18.0625,-23.6875,20.5625,-1.1445,0.4062,1.1328
4.650878,0.2908405711657971,-0.5417705259424719,-0.2595797797627474,-0.7446575033680207,8.1328,2.0547,3.1875,-1.1816,-0.7754,-1.291,-18.4375,-25.375,20.1875,-1.1445,0.4062,1.1328
4.661191,0.2814437197324464,-0.5449677591535177,-0.2594084004172051,-0.745993871221034,8.1328,2.0547,3.1875,-1.1816,-0.7754,-1.291,-18.4375,-25.375,20.1875,-1.2773,1.0312,0.7266
4.672914,0.27484868689241615,-0.5471734315095025,-0.25927293859880385,-0.7468848495410596,8.1562,1.6719,3.5117,-1.1816,-0.7754,-1.291,-18.4375,-25.375,20.1875,-1.2773,1.0312,0.7266
4.684886,0.24971944252706382,-0.5547476096805284,-0.2579631981363406,-0.7505666379376209,8.0938,1.2344,3.1016,-1.1816,-0.7754,-1.291,-18.4375,-25.375,20.1875,-1.2773,1.0312,0.7266
4.708128,0.23201719745761604,-0.5598191383964161,-0.25693787852234146,-0.7528303121882424,8.0703,1.2617,3.2539,-1.1816,-0.7754,-1.291,-15.4375,-28.25,18.0,-1.2773,1.0312,0.7266
4.709672,0.21957549646717703,-0.56325487593517,-0.256167215422934,-0.754260501305026,8.0703,1.2617,3.2539,-1.3496,-0.791,-1.416,-15.4375,-28.25,18.0,-1.2773,1.0312,0.7266
4.731272,0.21084334544240385,-0.5656034003803968,-0.255601900079809,-0.7551857690902147,8.1289,2.7852,2.8984,-1.3496,-0.791,-1.416,-15.4375,-28.25,18.0,-1.2773,1.0312,0.7266
4.731383,0.20472014127352275,-0.5672195317094908,-0.2551935455609279,-0.7557962165215286,8.1836,3.3672,2.8438,-1.3496,-0.791,-1.416,-12.6875,-29.3125,16.25,-1.2773,1.0312,0.7266
4.738975,0.2004288457890332,-0.568337132525376,-0.25490151890491297,-0.756205261307059,8.1562,3.7148,2.7461,-1.3496,-0.791,-1.416,-13.0,-29.6875,15.0625,-1.2773,1.0312,0.7266
4.751708,0.19742252817994776,-0.5691127271560603,-0.25469407706309016,-0.7564826344768332,7.9922,3.3477,2.2891,-1.3496,-0.791,-1.416,-13.0,-29.6875,15.0625,-1.2773,1.0312,0.7266
4.764891,0.17015513171501423,-0.5755879867644648,-0.25367343657252167,-0.7585482767899241,7.8672,3.0234,2.0586,-1.3496,-0.791,-1.416,-13.0,-29.6875,15.0625,-1.2773,1.0312,0.7266
4.776220,0.15097894879336846,-0.5798518032221218,-0.2528392293560677,-0.7596377869879387,8.0234,2.4688,1.5781,-1.3496,-0.791,-1.416,-10.375,-30.3125,14.9375,-1.2773,1.0312,0.7266
4.792702,0.13751761524582176,-0.582703343519919,-0.2521967899751729,-0.760225294287179,7.9766,2.4492,1.2227,-1.3496,-0.791,-1.416,-10.375,-30.3125,14.9375,-1.2539,0.0039,-0.4531
4.804924,0.1189638686585374,-0.5867065157257746,-0.2511965773336442,-0.7606072191969901,7.9766,2.4492,1.2227,-1.3496,-0.791,-1.416,-10.0,-31.75,14.0625,-1.2539,0.0039,-0.4531
4.814557,0.1005954540679863,-0.5904537232223636,-0.2507891858403884,-0.7604930897905775,7.9766,2.4492,1.2227,-0.9824,-0.7891,-1.3477,-8.75,-31.375,12.8125,-1.2539,0.0039,-0.4531
4.834200,0.0877139941556061,-0.5929537194918955,-0.2504514739347037,-0.7602540371309654,7.7148,3.4062,1.3984,-0.9824,-0.7891,-1.3477,-8.75,-31.375,12.8125,-1.4492,0.6328,-0.2344
4.839829,0.07868713494746954,-0.594643065167724,-0.2501893665650728,-0.7600087109365657,7.7148,3.3203,0.8516,-0.9824,-0.7891,-1.3477,-8.75,-31.375,12.8125,-1.4492,0.6328,-0.2344
4.852194,0.06502562254866055,-0.5970744627666815,-0.2510890412827086,-0.7590968631681783,7.8359,3.3789,0.5625,-0.9824,-0.7891,-1.3477,-8.75,-31.375,12.8125,-1.4492,0.6328,-0.2344
4.867168,0.05545400311815049,-0.5987076297434086,-0.2516898667927738,-0.7583707790909652,8.082,3.3672,0.3906,-0.9824,-0.7891,-1.3477,-5.75,-33.125,13.0625,-1.4492,0.6328,-0.2344
4.871782,0.048750375428759436,-0.5998170016377452,-0.25209621343372646,-0.7578195462075634,8.082,3.3672,0.3906,-0.9824,-0.7891,-1.3477,-5.75,-33.125,13.0625,-0.9609,0.1797,-1.0781
4.882203,0.04405636571239272,-0.600576936060351,-0.25237366735579564,-0.757412643502842,7.8516,3.332,0.4492,-0.9824,-0.7891,-1.3477,-5.75,-33.125,13.0625,-0.9609,0.1797,-1.0781
4.894946,0.08220745128552143,-0.5954869080762475,-0.24952536590728255,-0.759193235633568,7.5625,3.5039,0.5938,-0.9824,-0.7891,-1.3477,-5.75,-33.125,13.0625,-0.9609,0.1797,-1.0781
4.907088,0.14832706214953992,-0.5845048276154635,-0.24367815213453706,-0.7595881432069627,7.4141,3.1094,0.9766,-0.9824,-0.7891,-1.3477,-5.75,-33.125,13.0625,-1.4727,-0.4609,-0.4453
4.921159,0.2606270642043034,-0.5593791633473942,-0.23101808522069447,-0.752196204003968,7.4141,3.1094,0.9766,-1.1797,-0.3125,-1.3105,-1.8125,-32.4375,10.0625,-1.4727,-0.4609,-0.4453
4.945247,0.44035884368687556,-0.5005558871824307,-0.20291046799163465,-0.7171856346673318,7.4961,2.8047,0.8125,-1.1797,-0.3125,-1.3105,-1.8125,-32.4375,10.0625,-1.4727,-0.4609,-0.4453
4.945362,0.6851006567087916,-0.37216070385900735,-0.1442763856380969,-0.6093585358617354,7.6289,3.9062,1.1172,-1.1797,-0.3125,-1.3105,-2.1875,-34.5,9.25,-1.4727,-0.4609,-0.4453
4.964435,0.9118721461817187,-0.14901418221937324,-0.0460289303092791,-0.37969105874384396,7.418,4.3359,2.3242,-1.1797,-0.3125,-1.3105,-2.1875,-34.5,9.25,-1.0508,-0.0703,-0.3906
4.964542,0.9885391153913957,0.11961385297313516,0.0686281698586417,-0.06142570976367779,7.4141,4.1836,1.0898,-1.1797,-0.3125,-1.3105,-1.125,-34.5,9.625,-1.0508,-0.0703,-0.3906
4.969562,0.9003649836884362,0.3327773753889511,0.1570215305100026,0.2322635432719902,7.2422,4.1914,1.1289,-1.1797,-0.3125,-1.3105,-1.125,-34.5,9.625,-1.0508,-0.0703,-0.3906
4.980154,0.7369293690016598,0.4671004113225887,0.21074441432693078,0.4408390893229443,6.8867,4.1055,1.0312,-1.1797,-0.3125,-1.3105,0.125,-34.875,6.6875,-1.0508,-0.0703,-0.3906
4.989414,0.571558887091628,0.5396686692227629,0.2383554866567836,0.5703199347967065,6.9062,4.0781,1.1875,-1.1797,-0.3125,-1.3105,0.875,-35.5625,7.5,-1.0508,-0.0703,-0.3906
5.004186,0.44228480512736407,0.5718192141840956,0.24946730066601291,0.6443391989796571,7.2305,4.3555,1.1094,-1.1797,-0.3125,-1.3105,0.875,-35.5625,7.5,-1.0508,-0.0703,-0.3906
5.016994,0.34426638317542574,0.5865482833030402,0.2538244169648523,0.6877608117085621,7.2305,4.3555,1.1094,-1.1797,-0.3125,-1.3105,0.875,-35.5625,7.5,-1.0469,-0.2617,-0.625
5.028790,0.27275766903419535,0.5927988456850992,0.2551078566778083,0.7135213830003283,7.2891,5.2266,1.0703,-1.1797,-0.3125,-1.3105,3.5625,-34.125,6.125,-1.0469,-0.2617,-0.625
5.046943,0.22158451385502514,0.5951278050090598,0.25512227480452343,0.7291336117772215,7.2891,5.2266,1.0703,-1.1797,-0.3125,-1.3105,3.3125,-35.1875,4.9375,-1.0469,-0.2617,-0.625
5.060994,0.1853251336284209,0.5957430421297274,0.2546960985550691,0.7388333506146378,6.8828,4.9883,1.2422,-1.2168,-0.0703,-1.5684,3.3125,-35.1875,4.9375,-1.0469,-0.2617,-0.625
5.061106,0.17730214499025249,0.5911619890996122,0.25368239699434214,0.7448064805577692,6.6523,5.3984,1.4648,-1.2168,-0.0703,-1.5684,3.3125,-35.1875,4.9375,-1.0469,-0.2617,-0.625
5.067369,0.17434064906810467,0.5870641953622796,0.25295095011787455,0.7489838352331882,6.5391,5.5898,1.5586,-1.2168,-0.0703,-1.5684,3.3125,-35.1875,4.9375,-1.0469,-0.2617,-0.625
5.078067,0.17226302938751872,0.5841804516836008,0.25243236929613205,0.7518886536639053,6.2656,5.6367,1.8281,-1.0957,0.0312,-1.4922,3.3125,-35.1875,4.9375,-1.0469,-0.2617,-0.625
5.087748,0.17080648819973643,0.5821543856922372,0.25206615251390857,0.753912507897967,6.1055,5.4844,2.0469,-1.0879,0.0684,-1.4824,3.3125,-35.1875,4.9375,-1.0469,-0.2617,-0.625
5.102494,0.1697858388696123,0.5807325066645824,0.25180823052417395,0.7553245260566464,6.5547,5.6367,1.8672,-1.1055,0.0957,-1.4844,7.125,-35.1875,2.3125,-1.0469,-0.2617,-0.625
5.112582,0.1690708634372767,0.5797354163135328,0.2516269166221336,0.7563106405701209,6.4648,5.7227,1.8477,-1.1055,0.0957,-1.4844,7.125,-35.1875,2.3125,-0.8867,0.0508,-0.4219
5.120521,0.1685701265165811,0.5790365848634229,0.2514996206026344,0.7569997930466155,6.4648,5.7227,1.8477,-1.1055,0.0957,-1.4844,7.1875,-35.1875,0.5625,-0.8906,0.0586,-0.5117
5.135201,0.1865117313880487,0.5717189364658536,0.25176128914480306,0.7582658406054782,6.4648,5.7227,1.8477,-1.1055,0.0957,-1.4844,9.4375,-34.1875,0.9375,-0.8906,0.0586,-0.5117
5.143462,0.20174983651412004,0.5652859222649421,0.2519998758320375,0.7591079581563069,5.8594,5.7539,1.9023,-1.1055,0.0957,-1.4844,9.4375,-34.1875,0.9375,-0.8906,0.0586,-0.5117
5.160007,0.21238508779158263,0.5606898785167971,0.25212576663928565,0.7595735859079971,5.5117,5.7383,1.875,-1.1055,0.0957,-1.4844,9.4375,-34.1875,0.9375,-1.4414,-0.2578,-0.8047
5.170630,0.21981323317359075,0.5574275852746772,0.2521937223356514,0.759838769813112,5.6953,6.3008,2.1523,-1.1055,0.0957,-1.4844,9.4375,-34.1875,0.9375,-1.4414,-0.2578,-0.8047
5.178475,0.232765383426928,0.5515222828317826,0.252856569866116,0.760070393380558,5.7422,6.5234,2.1445,-1.1055,0.0957,-1.4844,9.4375,-34.1875,0.9375,-1.4414,-0.2578,-0.8047
5.189412,0.24180484268989338,0.5473214071765953,0.2532900541637993,0.7601406736648468,5.3906,6.7734,2.0,-1.1055,0.0957,-1.4844,9.4375,-34.1875,0.9375,-1.0703,0.4453,-0.793
5.203099,0.24811852611247381,0.544348192456066,0.25357850722504943,0.7601448434628121,5.3125,6.6914,1.8086,-1.1055,0.0957,-1.4844,9.4375,-34.1875,0.9375,-1.125,0.4805,-0.9766
5.222245,0.25253104325010745,0.5422510738227609,0.2537730697441401,0.760125696319833,5.082,6.7109,1.8477,-1.1055,0.0957,-1.4844,14.875,-34.125,-3.0625,-1.125,0.4805,-0.9766
5.226649,0.2556162679081695,0.5407753513784519,0.253905656087659,0.7601014805464507,5.082,6.7109,1.8477,-1.209,0.4688,-1.5957,14.875,-34.125,-3.0625,-1.332,0.9102,-1.1836
5.243533,0.2577741667444555,0.5397385651909272,0.25399669774307354,0.7600792312255706,4.6328,7.7148,2.1914,-1.209,0.4688,-1.5957,14.875,-34.125,-3.0625,-1.332,0.9102,-1.1836
5.251105,0.2769649746874625,0.5284280978265803,0.2551378961008242,0.7608934236783759,4.4102,7.4062,2.3242,-1.209,0.4688,-1.5957,14.875,-34.125,-3.0625,-1.332,0.9102,-1.1836
5.261706,0.2903203391152166,0.5203517604852907,0.2558613121821653,0.7612378964451946,4.1055,6.1172,2.7461,-1.6602,0.7012,-1.5859,14.875,-34.125,-3.0625,-1.332,0.9102,-1.1836
5.276924,0.2996282708006073,0.5146218612530712,0.25633058891302013,0.761368418339615,4.1445,6.125,2.9375,-1.6602,0.7012,-1.5859,18.75,-32.375,-4.375,-1.3555,-0.5469,-1.0
5.287706,0.31708147527637126,0.501492655053734,0.2552076446343996,0.7634353365438874,4.1641,5.9023,2.793,-1.6602,0.7012,-1.5859,18.75,-32.375,-4.375,-1.3555,-0.5469,-1.0
5.300476,0.32921114288061787,0.4921555489480813,0.25434806064079307,0.7646633266288619,3.2812,5.2656,2.9297,-1.5273,0.9004,-1.5352,18.75,-32.375,-4.375,-1.3555,-0.5469,-1.0
5.310244,0.33765679655845077,0.4855493411267703,0.25371045774512274,0.7654153961738714,3.2812,5.2656,2.9297,-1.5273,0.9004,-1.5352,20.0,-32.0,-7.375,-1.7812,-1.4453,-1.4609
5.323629,0.34354590816185415,0.48089114402162575,0.253246597446735,0.7658890764780956,2.9648,7.4492,3.332,-1.5273,0.9004,-1.5352,20.0,-32.0,-7.375,-2.0039,-0.4102,-1.2422
5.339782,0.3595195941193501,0.46547239858686357,0.25307865557855197,0.7681356011073842,2.8594,7.9766,3.3867,-1.5273,0.9004,-1.5352,20.0,-32.0,-7.375,-2.0039,-0.4102,-1.2422
5.343428,0.372993730926874,0.4518145083224828,0.25298358936181914,0.7698952073316047,2.5273,7.9531,3.9258,-1.5273,0.9004,-1.5352,20.0,-32.0,-7.375,-2.0039,-0.4102,-1.2422
5.360048,0.38234518761036057,0.44215217917518473,0.2528611395222214,0.770957101323645,2.6211,7.2031,4.3281,-1.5273,0.9004,-1.5352,22.6875,-29.8125,-7.125,-2.0039,-0.4102,-1.2422
5.367797,0.3939889803627943,0.42908610971628053,0.2523307630368421,0.7726493252611295,2.8516,6.7109,4.2422,-1.5273,0.9004,-1.5352,22.6875,-29.8125,-7.125,-2.0039,-0.4102,-1.2422
5.380740,0.40206841931431786,0.4198593361492268,0.251912969301507,0.7736917861371636,2.6211,6.2305,4.2227,-1.9316,1.4414,-1.5938,22.6875,-29.8125,-7.125,-2.0039,-0.4102,-1.2422
5.392343,0.40768815835209654,0.4133622213520142,0.2515977559331912,0.7743517344900743,2.6211,6.2305,4.2227,-1.8125,1.4883,-1.5488,24.9375,-27.0625,-8.0,-2.0039,-0.4102,-1.2422
5.407326,0.41160406275690836,0.4087958225837975,0.25136597244607384,0.7747794646583523,1.0039,6.7891,4.9102,-1.8125,1.4883,-1.5488,24.9375,-27.0625,-8.0,-1.8633,0.1719,-0.9727
5.416199,0.4143362984576068,0.40559045741800304,0.25119827507719267,0.7750620873389095,1.0039,6.7891,4.9102,-1.8125,1.4883,-1.5488,27.3125,-27.375,-9.3125,-2.2539,0.5859,0.2031
5.426959,0.416244459162503,0.40334239987380704,0.2510782196611165,0.7752516922215376,0.7812,7.9375,6.9141,-1.6738,1.6719,-1.4277,27.3125,-27.375,-9.3125,-2.2539,0.5859,0.2031
5.440762,0.41757799579719235,0.4017666726445728,0.25099287505390666,0.775380380748883,0.9258,8.6211,6.9023,-1.6738,1.6719,-1.4277,27.3125,-27.375,-9.3125,-1.7773,2.2812,0.4727
5.446756,0.4185103974232557,0.4006626503135721,0.2509324945003393,0.775468484914874,1.2422,7.3945,6.2891,-1.6738,1.6719,-1.4277,27.3125,-27.375,-9.3125,-1.7773,2.2812,0.4727
5.456922,0.41916254836445893,0.39988934286660593,0.2508899151074632,0.775529188366045,0.9922,6.2461,6.0977,-1.6738,1.6719,-1.4277,28.75,-25.9375,-9.8125,-1.7773,2.2812,0.4727
5.467997,0.4196187920117576,0.3993477893099209,0.2508599563103821,0.775571205553575,0.9922,6.2461,6.0977,-2.2051,1.8535,-1.2754,30.25,-25.3125,-8.625,-1.7773,2.2812,0.4727
5.479794,0.44344324731518614,0.35867796772979754,0.2472700053241228,0.7833043765630275,-0.043,5.8672,7.0156,-2.2051,1.8535,-1.2754,29.875,-25.3125,-9.0625,-1.7773,2.2812,0.4727
5.491225,0.45953560769429574,0.3296816844767461,0.2444156474925938,0.787653479293011,-0.8828,7.0273,7.6211,-2.2051,1.8535,-1.2754,31.0625,-23.5,-9.0625,-1.7773,2.2812,0.4727
5.501801,0.4735613355611846,0.30109731111225574,0.24151982667485122,0.7916743295228325,-1.1602,7.7344,8.3672,-2.2051,1.8535,-1.2754,31.0625,-23.5,-9.0625,-1.7773,2.2812,0.4727
5.512470,0.4830922293579762,0.2808905115419609,0.23934225176583776,0.7940010736638172,-0.5781,6.7305,8.5469,-1.7656,1.9395,-1.0371,31.0625,-23.5,-9.0625,-1.7773,2.2812,0.4727
5.529275,0.48961924225517317,0.26665670850546375,0.2377449737849645,0.7953895428420522,0.0352,6.0586,8.5859,-1.7656,1.9395,-1.0371,31.0,-21.75,-8.1875,-0.8008,0.7852,0.8867
5.551409,0.4941159790420946,0.2566521644223174,0.23659141227886432,0.7962434108917351,0.207,6.4336,8.4492,-1.7656,1.9395,-1.0371,32.1875,-21.75,-8.6875,-0.8008,0.7852,0.8867
5.551521,0.49722788427198206,0.24962991912035945,0.23576664822349053,0.7967831713633465,-1.6133,6.2812,7.1094,-1.9258,1.9258,-0.8496,32.5,-21.375,-8.6875,-0.8008,0.7852,0.8867
5.569767,0.5067126245204061,0.21630388916384544,0.23191218141936307,0.8016680633488833,-1.6133,6.2812,7.1094,-1.9258,1.9258,-0.8496,32.875,-20.375,-7.4375,-0.8008,0.7852,0.8867
5.576595,0.5136346819722352,0.1887085689963052,0.2286236833298493,0.8051706035886683,-3.2305,7.2578,6.5781,-1.9258,1.9258,-0.8496,32.875,-20.375,-7.4375,-0.8008,0.7852,0.8867
5.590481,0.5182279079337005,0.16928885146757325,0.22620728846212773,0.8072244934676237,-3.2305,7.2578,6.5781,-1.8691,2.2363,-0.5195,34.75,-21.375,-5.8125,-0.8008,0.7852,0.8867
5.601165,0.5213180261314198,0.15565055961601681,0.22446042525453702,0.8084664101966226,-2.4531,6.7305,11.2031,-1.8691,2.2363,-0.5195,34.75,-21.375,-5.8125,-0.8008,0.7852,0.8867
5.611061,0.5234192918802432,0.14608400003361705,0.2232107304481666,0.8092395687523929,-1.2305,6.9492,5.1602,-1.8691,2.2363,-0.5195,34.0,-19.6875,-6.625,-0.8008,0.7852,0.8867
5.619771,0.5248597267832744,0.1393784190320799,0.22232285461760706,0.8097335807682566,-2.0234,6.8242,7.5547,-1.8691,2.2363,-0.5195,34.0,-19.6875,-6.625,-0.8008,0.7852,0.8867
5.632974,0.5258530586528785,0.13468033580156363,0.221694957002472,0.8100562411915992,-2.0234,6.8242,7.5547,-2.9277,2.4551,0.0352,35.5,-20.0,-5.875,-0.7734,3.2305,-0.9844
5.648294,0.5256401679786716,0.09681993526719013,0.2141606857675305,0.8175961806501985,-2.0234,6.8242,7.5547,-2.9277,2.4551,0.0352,35.5,-20.0,-5.875,-1.5508,-0.0898,-3.4609
5.657406,0.525006600719843,0.0702052642583615,0.2086847223663364,0.8221252804298711,-3.5547,4.3359,7.707,-2.9277,2.4551,0.0352,35.5,-20.0,-5.875,-1.6562,1.4531,-0.9727
